Data from lamp3bck_noballon_Subt4__20__361.txt Node

Date: Fri Apr 04 11:09:07 CEST 2025
User: fys-lab-0081
Spectrometer: S04999
Trigger mode: 0
Resolution mode: 1024 pixels
Integration Time (sec): 1.000000E-1
Scans to average: 1
Nonlinearity correction enabled: false
Boxcar width: 0
Baseline correction enabled: true
XAxis mode: Wavelengths
Number of Pixels in Spectrum: 1024
>>>>>Begin Spectral Data<<<<<
336.42	11
336.877	8
337.334	8
337.792	17
338.249	12
338.706	19
339.164	12
339.621	12
340.079	16
340.536	16
340.994	17
341.452	10
341.909	17
342.367	22
342.825	22
343.283	19
343.741	18
344.198	18
344.656	20
345.114	27
345.572	19
346.03	24
346.488	22
346.947	21
347.405	28
347.863	25
348.321	25
348.779	28
349.238	29
349.696	34
350.154	31
350.613	34
351.071	38
351.53	32
351.988	35
352.447	39
352.905	38
353.364	41
353.823	50
354.282	46
354.74	47
355.199	49
355.658	51
356.117	52
356.576	48
357.035	51
357.494	58
357.953	55
358.412	52
358.871	60
359.33	64
359.789	59
360.249	61
360.708	68
361.167	62
361.626	71
362.086	69
362.545	71
363.005	72
363.464	80
363.924	78
364.383	80
364.843	86
365.303	87
365.762	92
366.222	92
366.682	96
367.142	96
367.601	102
368.061	98
368.521	98
368.981	101
369.441	105
369.901	96
370.361	107
370.821	108
371.282	105
371.742	106
372.202	108
372.662	113
373.123	117
373.583	117
374.043	125
374.504	122
374.964	127
375.425	129
375.885	134
376.346	136
376.806	130
377.267	144
377.728	136
378.188	141
378.649	146
379.11	145
379.571	153
380.032	155
380.493	155
380.954	158
381.414	164
381.876	174
382.337	178
382.798	180
383.259	185
383.72	191
384.181	200
384.642	207
385.104	215
385.565	216
386.026	224
386.488	234
386.949	230
387.411	244
387.872	244
388.334	252
388.795	253
389.257	259
389.719	263
390.181	270
390.642	281
391.104	281
391.566	284
392.028	299
392.49	301
392.952	305
393.414	311
393.876	313
394.338	333
394.8	331
395.262	336
395.724	348
396.186	353
396.648	357
397.111	356
397.573	363
398.035	363
398.498	376
398.96	380
399.423	382
399.885	391
400.348	388
400.81	403
401.273	407
401.736	406
402.198	429
402.661	440
403.124	439
403.587	450
404.049	462
404.512	474
404.975	485
405.438	479
405.901	488
406.364	485
406.827	495
407.29	484
407.754	487
408.217	481
408.68	486
409.143	493
409.607	500
410.07	494
410.533	506
410.997	519
411.46	516
411.924	517
412.387	519
412.851	544
413.314	561
413.778	559
414.242	566
414.705	585
415.169	574
415.633	583
416.097	583
416.561	590
417.024	609
417.488	586
417.952	595
418.416	587
418.88	607
419.344	595
419.809	593
420.273	615
420.737	593
421.201	615
421.665	617
422.13	612
422.594	634
423.059	648
423.523	653
423.987	661
424.452	685
424.916	690
425.381	718
425.846	720
426.31	715
426.775	733
427.24	748
427.704	728
428.169	746
428.634	747
429.099	734
429.564	727
430.029	743
430.494	735
430.959	736
431.424	727
431.889	750
432.354	756
432.819	749
433.284	775
433.75	770
434.215	798
434.68	808
435.146	827
435.611	858
436.077	885
436.542	902
437.008	923
437.473	924
437.939	929
438.404	954
438.87	967
439.336	939
439.801	939
440.267	959
440.733	972
441.199	979
441.665	971
442.131	1000
442.596	973
443.062	1007
443.529	1028
443.995	1042
444.461	1064
444.927	1108
445.393	1118
445.859	1154
446.325	1167
446.792	1237
447.258	1225
447.724	1259
448.191	1305
448.657	1322
449.124	1364
449.59	1352
450.057	1412
450.523	1430
450.99	1462
451.457	1449
451.923	1466
452.39	1439
452.857	1479
453.324	1478
453.791	1490
454.257	1501
454.724	1521
455.191	1514
455.658	1505
456.125	1563
456.592	1514
457.059	1543
457.527	1562
457.994	1599
458.461	1598
458.928	1638
459.396	1629
459.863	1680
460.33	1686
460.798	1686
461.265	1701
461.732	1686
462.2	1729
462.668	1719
463.135	1744
463.603	1700
464.07	1738
464.538	1681
465.006	1739
465.474	1690
465.941	1697
466.409	1720
466.877	1678
467.345	1725
467.813	1691
468.281	1698
468.749	1723
469.217	1722
469.685	1732
470.153	1748
470.621	1741
471.09	1747
471.558	1828
472.026	1798
472.494	1853
472.963	1872
473.431	1926
473.9	1947
474.368	1992
474.837	2040
475.305	2074
475.774	2098
476.242	2164
476.711	2173
477.18	2220
477.648	2181
478.117	2214
478.586	2192
479.055	2219
479.524	2244
479.993	2213
480.462	2203
480.93	2210
481.399	2208
481.869	2218
482.338	2183
482.807	2203
483.276	2199
483.745	2191
484.214	2243
484.684	2280
485.153	2259
485.622	2263
486.092	2326
486.561	2299
487.031	2368
487.5	2402
487.97	2384
488.439	2420
488.909	2467
489.378	2568
489.848	2576
490.318	2636
490.787	2733
491.257	2775
491.727	2831
492.197	2861
492.667	2842
493.137	2895
493.607	2896
494.077	2948
494.547	2923
495.017	2886
495.487	2922
495.957	2991
496.427	2916
496.897	2918
497.368	2955
497.838	2924
498.308	2972
498.779	2966
499.249	2962
499.719	2982
500.19	3005
500.66	3035
501.131	3056
501.602	3110
502.072	3117
502.543	3113
503.014	3220
503.484	3198
503.955	3272
504.426	3357
504.897	3333
505.368	3418
505.838	3501
506.309	3583
506.78	3699
507.251	3732
507.722	3795
508.194	3896
508.665	3910
509.136	3890
509.607	4003
510.078	4084
510.549	4157
511.021	4246
511.492	4226
511.964	4278
512.435	4299
512.906	4272
513.378	4306
513.849	4343
514.321	4358
514.793	4417
515.264	4453
515.736	4510
516.208	4610
516.679	4621
517.151	4663
517.623	4683
518.095	4722
518.567	4763
519.038	4860
519.51	4851
519.982	4921
520.454	4972
520.927	4982
521.399	5024
521.871	5111
522.343	5124
522.815	5165
523.287	5148
523.76	5189
524.232	5274
524.704	5344
525.177	5260
525.649	5246
526.122	5274
526.594	5173
527.067	5305
527.539	5335
528.012	5276
528.484	5258
528.957	5277
529.43	5250
529.903	5241
530.375	5416
530.848	5291
531.321	5384
531.794	5363
532.267	5464
532.74	5368
533.213	5311
533.686	5363
534.159	5334
534.632	5478
535.105	5465
535.578	5518
536.051	5575
536.525	5575
536.998	5534
537.471	5624
537.945	5561
538.418	5657
538.891	5685
539.365	5774
539.838	5819
540.312	5770
540.786	5849
541.259	5842
541.733	5896
542.206	5894
542.68	5799
543.154	5761
543.628	5736
544.101	5880
544.575	5846
545.049	5710
545.523	5824
545.997	5784
546.471	5813
546.945	5773
547.419	5856
547.893	5596
548.367	5679
548.842	5639
549.316	5632
549.79	5661
550.264	5643
550.739	5703
551.213	5710
551.687	5731
552.162	5725
552.636	5618
553.111	5615
553.585	5742
554.06	5646
554.534	5802
555.009	5751
555.484	5818
555.958	5904
556.433	5930
556.908	5979
557.383	5923
557.858	6059
558.333	6033
558.807	5929
559.282	5952
559.757	6113
560.232	6183
560.708	6085
561.183	6072
561.658	6126
562.133	6132
562.608	6082
563.083	6284
563.559	6088
564.034	6100
564.509	6076
564.985	6078
565.46	6009
565.936	6099
566.411	6133
566.887	6056
567.362	6104
567.838	6082
568.313	6137
568.789	6083
569.265	6108
569.74	6125
570.216	6041
570.692	6194
571.168	6182
571.644	6130
572.12	6098
572.596	6162
573.071	6136
573.547	6269
574.024	6288
574.5	6284
574.976	6322
575.452	6399
575.928	6397
576.404	6402
576.881	6629
577.357	6520
577.833	6559
578.31	6736
578.786	6799
579.262	6918
579.739	6794
580.215	6989
580.692	7007
581.169	7005
581.645	7022
582.122	7170
582.598	7125
583.075	7137
583.552	7229
584.029	7233
584.506	7195
584.982	7115
585.459	7241
585.936	7140
586.413	7250
586.89	7351
587.367	7221
587.844	7322
588.321	7254
588.799	7242
589.276	7194
589.753	7312
590.23	7306
590.707	7283
591.185	7292
591.662	7266
592.139	7303
592.617	7371
593.094	7391
593.572	7516
594.049	7557
594.527	7619
595.004	7624
595.482	7785
595.96	7705
596.437	7683
596.915	7855
597.393	7708
597.871	7884
598.349	7820
598.826	8010
599.304	8009
599.782	8148
600.26	8039
600.738	8141
601.216	8061
601.694	8142
602.173	8223
602.651	8268
603.129	8122
603.607	8150
604.085	8240
604.564	8258
605.042	8263
605.52	8205
605.999	8390
606.477	8215
606.956	8209
607.434	8185.5
607.913	8162
608.391	8178
608.87	8241
609.348	8192
609.827	8243
610.306	8260
610.785	8253
611.263	8275
611.742	8179
612.221	7956
612.7	8020
613.179	8057
613.658	7989
614.137	8175
614.616	8268
615.095	8092
615.574	8192
616.053	8301
616.532	8206
617.011	8158
617.491	8123
617.97	8092
618.449	8204
618.928	8280
619.408	8268
619.887	8363
620.367	8357
620.846	8388
621.326	8367
621.805	8579
622.285	8577
622.764	8606
623.244	8606
623.724	8657
624.203	8743
624.683	8536
625.163	8681
625.643	8680
626.123	8612
626.602	8783
627.082	8569
627.562	8573
628.042	8690
628.522	8620
629.002	8656
629.482	8708
629.963	8635
630.443	8498
630.923	8500
631.403	8559
631.883	8506
632.364	8578
632.844	8551
633.324	8526
633.805	8541
634.285	8453
634.766	8404
635.246	8402
635.727	8348
636.207	8375
636.688	8445
637.168	8468
637.649	8400
638.13	8383
638.611	8412
639.091	8370
639.572	8420
640.053	8383
640.534	8473
641.015	8433
641.496	8268
641.977	8387
642.458	8207
642.939	8168
643.42	8163
643.901	8192
644.382	8248
644.863	8232
645.345	8224
645.826	8147
646.307	8099
646.788	8297
647.27	8226
647.751	8293
648.233	8406
648.714	8246
649.196	8472
649.677	8415
650.159	8431
650.64	8334
651.122	8420
651.603	8260
652.085	8322
652.567	8284
653.049	8206
653.53	8206
654.012	8246
654.494	7991
654.976	8008
655.458	7980
655.94	8017
656.422	8186
656.904	8076
657.386	7941
657.868	8001
658.35	8059
658.833	8190
659.315	8156
659.797	8034
660.279	8074
660.762	8119
661.244	8044
661.726	7951
662.209	7932
662.691	7926
663.174	7784
663.656	7843
664.139	7873
664.621	7839
665.104	7781
665.587	7776
666.069	7723
666.552	7680
667.035	7566
667.517	7621
668	7693
668.483	7657
668.966	7538
669.449	7474
669.932	7541
670.415	7724
670.898	7658
671.381	7667
671.864	7674
672.347	7608
672.83	7602
673.313	7645
673.797	7574
674.28	7627
674.763	7574
675.247	7563
675.73	7587
676.213	7690
676.697	7732
677.18	7716
677.664	7758
678.147	7737
678.631	7744
679.114	7813
679.598	7856
680.082	7957
680.565	7961
681.049	7959
681.533	7947
682.017	8024
682.5	7960
682.984	7940
683.468	7876
683.952	7726
684.436	7877
684.92	7785
685.404	7825
685.888	7873
686.372	7781
686.856	7739
687.341	7847
687.825	7761
688.309	7787
688.793	7803
689.278	7774
689.762	7910
690.246	7856
690.731	7826
691.215	7773
691.7	7545
692.184	7609
692.669	7606
693.153	7642
693.638	7514
694.122	7515
694.607	7536
695.092	7363
695.577	7448
696.061	7342
696.546	7391
697.031	7369
697.516	7439
698.001	7396
698.486	7314
698.971	7413
699.456	7354
699.941	7360
700.426	7347
700.911	7422
701.396	7376
701.881	7372
702.366	7269
702.852	7216
703.337	7229
703.822	7218
704.308	7155
704.793	7147
705.278	7097
705.764	7112
706.249	7095
706.735	7094
707.22	7151
707.706	7037
708.191	7190
708.677	7208
709.163	7152
709.648	7176
710.134	7225
710.62	7136
711.106	7105
711.592	7157
712.077	7103
712.563	6928
713.049	6965
713.535	7124
714.021	7086
714.507	7030
714.993	6936
715.479	7072
715.966	6983
716.452	6950
716.938	6932
717.424	6745
717.91	6890
718.397	6788
718.883	6733
719.369	6773
719.856	6807
720.342	6901
720.829	6756
721.315	6723
721.802	6678
722.288	6712
722.775	6464
723.262	6301
723.748	6569
724.235	6525
724.722	6600
725.208	6490
725.695	6492
726.182	6476
726.669	6390
727.156	6400
727.643	6355
728.13	6348
728.617	6289
729.104	6272
729.591	6226
730.078	6270
730.565	6282
731.052	6226
731.539	6289
732.027	6195
732.514	6097
733.001	6132
733.488	6135
733.976	6170
734.463	6172
734.951	6127
735.438	6165
735.926	6054
736.413	6027
736.901	5902
737.388	5974
737.876	5927
738.364	5824
738.851	5826
739.339	5818
739.827	5843
740.314	5697
740.802	5760
741.29	5830
741.778	5771
742.266	5769
742.754	5786
743.242	5864
743.73	5772
744.218	5752
744.706	5655
745.194	5690
745.682	5641
746.17	5740
746.659	5803
747.147	5673
747.635	5689
748.123	5680
748.612	5625
749.1	5543
749.589	5542
750.077	5471
750.566	5378
751.054	5416
751.543	5437
752.031	5346
752.52	5349
753.008	5230
753.497	5201
753.986	5167
754.474	5140
754.963	5171
755.452	5121
755.941	5066
756.43	5040
756.919	4948
757.408	4871
757.896	4894
758.385	4956
758.875	4919
759.364	4877
759.853	4876
760.342	4798
760.831	4937
761.32	4925
761.809	4877
762.299	4890
762.788	4894
763.277	4854
763.767	4728
764.256	4682
764.745	4597
765.235	4684
765.724	4566
766.214	4619
766.703	4575
767.193	4498
767.683	4515
768.172	4423
768.662	4475
769.152	4486
769.641	4482
770.131	4353
770.621	4374
771.111	4278
771.601	4288
772.09	4254
772.58	4225
773.07	4262
773.56	4322
774.05	4224
774.54	4178
775.031	4120
775.521	4062
776.011	4051
776.501	4098
776.991	4065
777.482	4133
777.972	3987
778.462	3961
778.953	4014
779.443	4010
779.933	4034
780.424	3954
780.914	3966
781.405	3922
781.895	3850
782.386	3839
782.877	3806
783.367	3730
783.858	3747
784.349	3756
784.839	3730
785.33	3758
785.821	3727
786.312	3685
786.803	3675
787.293	3659
787.784	3586
788.275	3538
788.766	3495
789.257	3558
789.748	3466
790.24	3420
790.731	3441
791.222	3379
791.713	3375
792.204	3420
792.696	3364
793.187	3440
793.678	3421
794.169	3324
794.661	3357
795.152	3305
795.644	3264
796.135	3240
796.627	3242
797.118	3182
797.61	3171
798.101	3137
798.593	3179
799.085	3120
799.576	3105
800.068	3069
800.56	3080
801.052	2997
801.544	2998
802.035	3005
802.527	2965
803.019	2951
803.511	2958
804.003	2934
804.495	2927
804.987	2871
805.479	2801
805.971	2822
806.464	2838
806.956	2776
807.448	2772
807.94	2765
808.433	2741
808.925	2760
809.417	2769
809.91	2752
810.402	2691
810.894	2718
811.387	2722
811.879	2656
812.372	2640
812.865	2605
813.357	2615
813.85	2605
814.342	2569
814.835	2549
815.328	2538
815.821	2490
816.313	2480
816.806	2479
817.299	2467
817.792	2523
818.285	2510
818.778	2542
819.271	2520
819.764	2459
820.257	2450
820.75	2426
821.243	2413
821.736	2392
822.229	2418
822.722	2421
823.216	2478
