Data from lamp3bck_noballon_Subt4__25__366.txt Node

Date: Fri Apr 04 11:09:08 CEST 2025
User: fys-lab-0081
Spectrometer: S04999
Trigger mode: 0
Resolution mode: 1024 pixels
Integration Time (sec): 1.000000E-1
Scans to average: 1
Nonlinearity correction enabled: false
Boxcar width: 0
Baseline correction enabled: true
XAxis mode: Wavelengths
Number of Pixels in Spectrum: 1024
>>>>>Begin Spectral Data<<<<<
336.42	10
336.877	8
337.334	10
337.792	12
338.249	13
338.706	11
339.164	15
339.621	13
340.079	15
340.536	11
340.994	10
341.452	15
341.909	17
342.367	12
342.825	19
343.283	19
343.741	21
344.198	17
344.656	19
345.114	21
345.572	19
346.03	23
346.488	17
346.947	21
347.405	27
347.863	26
348.321	25
348.779	24
349.238	30
349.696	33
350.154	30
350.613	36
351.071	33
351.53	34
351.988	36
352.447	40
352.905	38
353.364	37
353.823	48
354.282	46
354.74	44
355.199	48
355.658	54
356.117	52
356.576	49
357.035	53
357.494	52
357.953	47
358.412	54
358.871	55
359.33	57
359.789	54
360.249	62
360.708	66
361.167	65
361.626	66
362.086	68
362.545	72
363.005	72
363.464	78
363.924	78
364.383	83
364.843	85
365.303	81
365.762	89
366.222	90
366.682	91
367.142	96
367.601	99
368.061	100
368.521	103
368.981	101
369.441	104
369.901	98
370.361	103
370.821	110
371.282	102
371.742	104
372.202	105
372.662	111
373.123	116
373.583	116
374.043	124
374.504	122
374.964	125
375.425	131
375.885	134
376.346	134
376.806	130
377.267	142
377.728	138
378.188	145
378.649	148
379.11	143
379.571	151
380.032	151
380.493	158
380.954	162
381.414	164
381.876	176
382.337	177
382.798	176
383.259	189
383.72	190
384.181	206
384.642	203
385.104	215
385.565	217
386.026	227
386.488	234
386.949	231
387.411	244
387.872	246
388.334	247
388.795	253
389.257	258
389.719	264
390.181	272
390.642	276
391.104	278
391.566	283
392.028	297
392.49	303
392.952	304
393.414	312
393.876	319
394.338	330
394.8	326
395.262	333
395.724	349
396.186	349
396.648	354
397.111	359
397.573	359
398.035	364
398.498	376
398.96	377
399.423	377
399.885	388
400.348	392
400.81	407
401.273	406
401.736	404
402.198	426
402.661	441
403.124	444
403.587	447
404.049	461
404.512	475
404.975	490
405.438	475
405.901	487
406.364	484
406.827	493
407.29	486
407.754	487
408.217	482
408.68	486
409.143	491
409.607	494
410.07	496
410.533	503
410.997	517
411.46	514
411.924	517
412.387	518
412.851	541
413.314	562
413.778	553
414.242	561
414.705	583
415.169	572
415.633	585
416.097	580
416.561	589
417.024	610
417.488	586
417.952	595
418.416	586
418.88	603
419.344	595
419.809	592
420.273	614
420.737	594
421.201	610
421.665	623
422.13	611
422.594	629
423.059	644
423.523	649
423.987	657
424.452	688
424.916	691
425.381	713
425.846	720
426.31	712
426.775	729
427.24	749
427.704	730
428.169	745
428.634	742
429.099	731
429.564	721
430.029	743
430.494	737
430.959	737
431.424	725
431.889	753
432.354	752
432.819	743
433.284	776
433.75	776
434.215	801
434.68	807
435.146	826
435.611	859
436.077	881
436.542	895
437.008	924
437.473	925
437.939	925
438.404	956
438.87	958
439.336	945
439.801	944
440.267	961
440.733	974
441.199	981
441.665	974
442.131	998
442.596	973
443.062	1003
443.529	1024
443.995	1040
444.461	1061
444.927	1105
445.393	1113
445.859	1157
446.325	1167
446.792	1236
447.258	1225
447.724	1249
448.191	1307
448.657	1317
449.124	1357
449.59	1347
450.057	1415
450.523	1432
450.99	1462
451.457	1449
451.923	1465
452.39	1438
452.857	1478
453.324	1474
453.791	1492
454.257	1502
454.724	1536
455.191	1517
455.658	1497
456.125	1565
456.592	1512
457.059	1549
457.527	1561
457.994	1599
458.461	1598
458.928	1639
459.396	1629
459.863	1679
460.33	1681
460.798	1687
461.265	1699
461.732	1690
462.2	1728
462.668	1712
463.135	1742
463.603	1697
464.07	1742
464.538	1673
465.006	1737
465.474	1681
465.941	1706
466.409	1712
466.877	1669
467.345	1719
467.813	1687
468.281	1700
468.749	1719
469.217	1720
469.685	1730
470.153	1756
470.621	1741
471.09	1753
471.558	1829
472.026	1803
472.494	1854
472.963	1867
473.431	1927
473.9	1950
474.368	2001
474.837	2042
475.305	2069
475.774	2107
476.242	2163
476.711	2176
477.18	2213
477.648	2181
478.117	2208
478.586	2188
479.055	2213
479.524	2243
479.993	2212
480.462	2203
480.93	2208
481.399	2207
481.869	2221
482.338	2181
482.807	2201
483.276	2188
483.745	2190
484.214	2256
484.684	2281
485.153	2257
485.622	2257
486.092	2332
486.561	2298
487.031	2368
487.5	2394
487.97	2388
488.439	2417
488.909	2469
489.378	2576
489.848	2571
490.318	2639
490.787	2740
491.257	2780
491.727	2838
492.197	2867
492.667	2839
493.137	2890
493.607	2903
494.077	2941
494.547	2930
495.017	2885
495.487	2929
495.957	2997
496.427	2922
496.897	2917
497.368	2957
497.838	2927
498.308	2966
498.779	2961
499.249	2963
499.719	2990
500.19	3003
500.66	3037
501.131	3056
501.602	3119
502.072	3115
502.543	3104
503.014	3223
503.484	3202
503.955	3272
504.426	3359
504.897	3327
505.368	3418
505.838	3499
506.309	3591
506.78	3692
507.251	3728
507.722	3796
508.194	3904
508.665	3912
509.136	3895
509.607	4003
510.078	4088
510.549	4162
511.021	4242
511.492	4232
511.964	4282
512.435	4299
512.906	4280
513.378	4305
513.849	4344
514.321	4362
514.793	4419
515.264	4458
515.736	4514
516.208	4604
516.679	4624
517.151	4668
517.623	4681
518.095	4728
518.567	4759
519.038	4877
519.51	4851
519.982	4923
520.454	4968
520.927	4982
521.399	5028
521.871	5113
522.343	5130
522.815	5167
523.287	5150
523.76	5185
524.232	5280
524.704	5337
525.177	5256
525.649	5239
526.122	5277
526.594	5173
527.067	5313
527.539	5336
528.012	5273
528.484	5268
528.957	5264
529.43	5256
529.903	5260
530.375	5406
530.848	5287
531.321	5376
531.794	5368
532.267	5472
532.74	5377
533.213	5301
533.686	5361
534.159	5330
534.632	5479
535.105	5471
535.578	5512
536.051	5574
536.525	5581
536.998	5526
537.471	5614
537.945	5561
538.418	5655
538.891	5688
539.365	5775
539.838	5811
540.312	5772
540.786	5847
541.259	5847
541.733	5898
542.206	5891
542.68	5805
543.154	5758
543.628	5741
544.101	5879
544.575	5839
545.049	5704
545.523	5824
545.997	5787
546.471	5817
546.945	5770
547.419	5857
547.893	5598
548.367	5673
548.842	5637
549.316	5627
549.79	5669
550.264	5641
550.739	5698
551.213	5716
551.687	5739
552.162	5723
552.636	5629
553.111	5630
553.585	5745
554.06	5646
554.534	5793
555.009	5750
555.484	5822
555.958	5894
556.433	5934
556.908	5983
557.383	5924
557.858	6055
558.333	6040
558.807	5931
559.282	5951
559.757	6110
560.232	6189
560.708	6084
561.183	6071
561.658	6125
562.133	6132
562.608	6082
563.083	6274
563.559	6104
564.034	6100
564.509	6085
564.985	6075
565.46	5990
565.936	6093
566.411	6122
566.887	6054
567.362	6097
567.838	6071
568.313	6143
568.789	6072
569.265	6106
569.74	6124
570.216	6038
570.692	6183
571.168	6189
571.644	6137
572.12	6091
572.596	6156
573.071	6129
573.547	6271
574.024	6286
574.5	6287
574.976	6313
575.452	6407
575.928	6400
576.404	6407
576.881	6620
577.357	6516
577.833	6576
578.31	6741
578.786	6790
579.262	6908
579.739	6790
580.215	6992
580.692	7015
581.169	7009
581.645	7020
582.122	7169
582.598	7133
583.075	7136
583.552	7233
584.029	7239
584.506	7210
584.982	7103
585.459	7245
585.936	7134
586.413	7255
586.89	7343
587.367	7226
587.844	7327
588.321	7247
588.799	7253
589.276	7212
589.753	7307
590.23	7309
590.707	7279
591.185	7292
591.662	7271
592.139	7299
592.617	7374
593.094	7382
593.572	7517
594.049	7565
594.527	7614
595.004	7614
595.482	7771
595.96	7699
596.437	7686
596.915	7853
597.393	7716
597.871	7882
598.349	7818
598.826	8013
599.304	8010
599.782	8151
600.26	8039
600.738	8137
601.216	8057
601.694	8142
602.173	8229
602.651	8268
603.129	8110
603.607	8143
604.085	8250
604.564	8247
605.042	8257
605.52	8204
605.999	8382
606.477	8216
606.956	8214
607.434	8190
607.913	8166
608.391	8183
608.87	8232
609.348	8190
609.827	8239
610.306	8261
610.785	8256
611.263	8275
611.742	8179
612.221	7959
612.7	8022
613.179	8057
613.658	7981
614.137	8181
614.616	8262
615.095	8093
615.574	8188
616.053	8293
616.532	8207
617.011	8160
617.491	8137
617.97	8091
618.449	8198
618.928	8287
619.408	8269
619.887	8365
620.367	8367
620.846	8390
621.326	8357
621.805	8561
622.285	8575
622.764	8612
623.244	8595
623.724	8666
624.203	8740
624.683	8530
625.163	8692
625.643	8675
626.123	8618
626.602	8771
627.082	8568
627.562	8585
628.042	8692
628.522	8620
629.002	8658
629.482	8702
629.963	8643
630.443	8487
630.923	8506
631.403	8565
631.883	8514
632.364	8571
632.844	8555
633.324	8535
633.805	8528
634.285	8438
634.766	8399
635.246	8393
635.727	8346
636.207	8376
636.688	8428
637.168	8472
637.649	8390
638.13	8375
638.611	8402
639.091	8372
639.572	8394
640.053	8379
640.534	8472
641.015	8435
641.496	8279
641.977	8381
642.458	8217
642.939	8168
643.42	8163
643.901	8191
644.382	8241
644.863	8225
645.345	8234
645.826	8161
646.307	8101
646.788	8302
647.27	8224
647.751	8297
648.233	8405
648.714	8250
649.196	8470
649.677	8411
650.159	8426
650.64	8330
651.122	8413
651.603	8272
652.085	8323
652.567	8277
653.049	8209
653.53	8211
654.012	8239
654.494	7988
654.976	7999
655.458	7969
655.94	8020
656.422	8189
656.904	8063
657.386	7957
657.868	7993
658.35	8071
658.833	8201
659.315	8156
659.797	8032
660.279	8064
660.762	8123
661.244	8035
661.726	7951
662.209	7936
662.691	7918
663.174	7796
663.656	7840
664.139	7871
664.621	7840
665.104	7759
665.587	7767
666.069	7735
666.552	7678
667.035	7566
667.517	7620
668	7697
668.483	7655
668.966	7538
669.449	7479
669.932	7549
670.415	7723
670.898	7672
671.381	7666
671.864	7670
672.347	7598
672.83	7583
673.313	7642
673.797	7569
674.28	7623
674.763	7572
675.247	7569
675.73	7574
676.213	7682
676.697	7744
677.18	7714
677.664	7758
678.147	7744
678.631	7736
679.114	7806
679.598	7857
680.082	7958
680.565	7972
681.049	7956
681.533	7958
682.017	8012
682.5	7959
682.984	7934
683.468	7876
683.952	7718
684.436	7887
684.92	7788
685.404	7810
685.888	7867
686.372	7779
686.856	7736
687.341	7840
687.825	7765
688.309	7792
688.793	7797
689.278	7779
689.762	7904
690.246	7843
690.731	7820
691.215	7786
691.7	7555
692.184	7612
692.669	7606
693.153	7636
693.638	7511
694.122	7506
694.607	7531
695.092	7366
695.577	7452
696.061	7339
696.546	7390
697.031	7377
697.516	7436
698.001	7397
698.486	7310
698.971	7408
699.456	7345
699.941	7371
700.426	7348
700.911	7426
701.396	7371
701.881	7363
702.366	7263
702.852	7203
703.337	7231
703.822	7206
704.308	7145
704.793	7154
705.278	7096
705.764	7108
706.249	7076
706.735	7094
707.22	7146
707.706	7030
708.191	7191
708.677	7210
709.163	7145
709.648	7179
710.134	7221
710.62	7126
711.106	7092
711.592	7154
712.077	7099
712.563	6927
713.049	6964
713.535	7136
714.021	7088
714.507	7020
714.993	6939
715.479	7069
715.966	6972
716.452	6953
716.938	6936
717.424	6750
717.91	6883
718.397	6788
718.883	6737
719.369	6789
719.856	6807
720.342	6899
720.829	6764
721.315	6720
721.802	6668
722.288	6704
722.775	6463
723.262	6293
723.748	6564
724.235	6518
724.722	6597
725.208	6489
725.695	6501
726.182	6489
726.669	6386
727.156	6402
727.643	6350
728.13	6356
728.617	6296
729.104	6271
729.591	6229
730.078	6266
730.565	6281
731.052	6241
731.539	6281
732.027	6194
732.514	6089
733.001	6135
733.488	6139
733.976	6168
734.463	6163
734.951	6143
735.438	6175
735.926	6041
736.413	6010
736.901	5908
737.388	5984
737.876	5919
738.364	5815
738.851	5816
739.339	5820
739.827	5848
740.314	5690
740.802	5762
741.29	5823
741.778	5761
742.266	5756
742.754	5785
743.242	5854
743.73	5767
744.218	5755
744.706	5650
745.194	5693
745.682	5641
746.17	5727
746.659	5809
747.147	5670
747.635	5693
748.123	5685
748.612	5623
749.1	5538
749.589	5540
750.077	5477
750.566	5385
751.054	5414
751.543	5430
752.031	5340
752.52	5347
753.008	5229
753.497	5201
753.986	5160
754.474	5139
754.963	5187
755.452	5103
755.941	5065
756.43	5037
756.919	4952
757.408	4874
757.896	4893
758.385	4937
758.875	4920
759.364	4879
759.853	4867
760.342	4793
760.831	4934
761.32	4927
761.809	4875
762.299	4889
762.788	4876
763.277	4841
763.767	4724
764.256	4681
764.745	4596
765.235	4681
765.724	4573
766.214	4619
766.703	4577
767.193	4497
767.683	4510
768.172	4421
768.662	4476
769.152	4479
769.641	4475
770.131	4346
770.621	4364
771.111	4288
771.601	4282
772.09	4251
772.58	4224
773.07	4257
773.56	4317
774.05	4221
774.54	4169
775.031	4121
775.521	4055
776.011	4044
776.501	4095
776.991	4070
777.482	4140
777.972	3968
778.462	3955
778.953	4004
779.443	4011
779.933	4029
780.424	3961
780.914	3953
781.405	3925
781.895	3834
782.386	3838
782.877	3800
783.367	3733
783.858	3744
784.349	3759
784.839	3729
785.33	3755
785.821	3722
786.312	3694
786.803	3671
787.293	3658
787.784	3587
788.275	3530
788.766	3494
789.257	3549
789.748	3462
790.24	3418
790.731	3442
791.222	3383
791.713	3368
792.204	3410
792.696	3364
793.187	3434
793.678	3419
794.169	3326
794.661	3352
795.152	3306
795.644	3262
796.135	3244
796.627	3242
797.118	3174
797.61	3177
798.101	3148
798.593	3173
799.085	3114
799.576	3106
800.068	3058
800.56	3077
801.052	3003
801.544	2994
802.035	3016
802.527	2974
803.019	2951
803.511	2955
804.003	2942
804.495	2926
804.987	2871
805.479	2795
805.971	2821
806.464	2834
806.956	2777
807.448	2770
807.94	2762
808.433	2745
808.925	2757
809.417	2767
809.91	2752
810.402	2686
810.894	2712
811.387	2719
811.879	2655
812.372	2641
812.865	2605
813.357	2609
813.85	2605
814.342	2563
814.835	2548
815.328	2533
815.821	2488
816.313	2477
816.806	2477
817.299	2470
817.792	2509
818.285	2503
818.778	2540
819.271	2528
819.764	2455
820.257	2449
820.75	2425
821.243	2406
821.736	2381
822.229	2420
822.722	2410
823.216	2467
