Data from lamp3bck_noballon_Subt4__28__369.txt Node

Date: Fri Apr 04 11:09:08 CEST 2025
User: fys-lab-0081
Spectrometer: S04999
Trigger mode: 0
Resolution mode: 1024 pixels
Integration Time (sec): 1.000000E-1
Scans to average: 1
Nonlinearity correction enabled: false
Boxcar width: 0
Baseline correction enabled: true
XAxis mode: Wavelengths
Number of Pixels in Spectrum: 1024
>>>>>Begin Spectral Data<<<<<
336.42	4
336.877	4
337.334	13
337.792	10
338.249	11
338.706	16
339.164	11
339.621	11
340.079	17
340.536	13
340.994	15
341.452	15
341.909	16
342.367	17
342.825	17
343.283	23
343.741	24
344.198	12
344.656	21
345.114	21
345.572	19
346.03	21
346.488	24
346.947	26
347.405	27
347.863	24
348.321	20
348.779	26
349.238	31
349.696	32
350.154	29
350.613	32
351.071	39
351.53	33
351.988	38
352.447	39
352.905	40
353.364	42
353.823	48
354.282	43
354.74	46
355.199	48
355.658	44
356.117	51
356.576	48
357.035	52
357.494	54
357.953	52
358.412	51
358.871	59
359.33	64
359.789	60
360.249	66
360.708	63
361.167	65
361.626	71
362.086	71
362.545	70
363.005	68
363.464	77
363.924	77
364.383	79
364.843	86
365.303	84
365.762	86
366.222	95
366.682	93
367.142	92
367.601	96
368.061	99
368.521	104
368.981	100
369.441	101
369.901	98
370.361	109
370.821	107
371.282	102
371.742	101
372.202	111
372.662	112
373.123	115
373.583	113
374.043	121
374.504	123
374.964	124
375.425	129
375.885	128
376.346	134
376.806	131
377.267	141
377.728	139
378.188	143
378.649	144
379.11	150
379.571	145
380.032	151
380.493	160
380.954	165
381.414	167
381.876	171
382.337	180
382.798	176
383.259	190
383.72	191
384.181	205
384.642	199
385.104	213
385.565	214
386.026	224
386.488	236
386.949	236
387.411	242
387.872	243
388.334	248
388.795	251
389.257	256
389.719	266
390.181	271
390.642	276
391.104	279
391.566	285
392.028	295
392.49	301
392.952	303
393.414	316
393.876	321
394.338	327
394.8	326
395.262	334
395.724	350
396.186	348
396.648	353
397.111	353
397.573	356
398.035	361
398.498	372
398.96	374
399.423	381
399.885	385
400.348	386
400.81	401
401.273	409
401.736	408
402.198	426
402.661	441
403.124	445
403.587	447
404.049	463
404.512	479
404.975	484
405.438	475
405.901	489
406.364	485
406.827	491
407.29	486
407.754	480
408.217	483
408.68	487
409.143	493
409.607	496
410.07	500
410.533	504
410.997	513
411.46	516
411.924	517
412.387	519
412.851	542
413.314	562
413.778	556
414.242	563
414.705	589
415.169	572
415.633	583
416.097	585
416.561	593
417.024	609
417.488	585
417.952	595
418.416	586
418.88	603
419.344	597
419.809	595
420.273	610
420.737	598
421.201	613
421.665	613
422.13	612
422.594	632
423.059	646
423.523	645
423.987	659
424.452	685
424.916	691
425.381	711
425.846	721
426.31	715
426.775	732
427.24	745
427.704	732
428.169	741
428.634	740
429.099	727
429.564	723
430.029	737
430.494	740
430.959	742
431.424	721
431.889	747
432.354	750
432.819	743
433.284	773
433.75	774
434.215	799
434.68	804
435.146	830
435.611	860
436.077	881
436.542	899
437.008	918
437.473	922
437.939	928
438.404	950
438.87	958
439.336	934
439.801	942
440.267	959
440.733	974
441.199	976
441.665	971
442.131	995
442.596	977
443.062	1003
443.529	1021
443.995	1041
444.461	1068
444.927	1108
445.393	1113
445.859	1151
446.325	1161
446.792	1230
447.258	1221
447.724	1252
448.191	1303
448.657	1319
449.124	1357
449.59	1349
450.057	1414
450.523	1424
450.99	1458
451.457	1442
451.923	1461
452.39	1435
452.857	1483
453.324	1473
453.791	1488
454.257	1499
454.724	1525
455.191	1517
455.658	1498
456.125	1560
456.592	1518
457.059	1547
457.527	1554
457.994	1593
458.461	1595
458.928	1632
459.396	1625
459.863	1687
460.33	1679
460.798	1675
461.265	1696
461.732	1685
462.2	1732
462.668	1723
463.135	1743
463.603	1699
464.07	1733
464.538	1675
465.006	1738
465.474	1686
465.941	1698
466.409	1710
466.877	1671
467.345	1719
467.813	1690
468.281	1701
468.749	1722
469.217	1720
469.685	1733
470.153	1748
470.621	1735
471.09	1744
471.558	1818
472.026	1797
472.494	1839
472.963	1871
473.431	1923
473.9	1952
474.368	1994
474.837	2038
475.305	2074
475.774	2098
476.242	2159
476.711	2172
477.18	2213
477.648	2176
478.117	2213
478.586	2181
479.055	2217
479.524	2240
479.993	2218
480.462	2198
480.93	2205
481.399	2205
481.869	2225
482.338	2175
482.807	2193
483.276	2189
483.745	2189
484.214	2242
484.684	2271
485.153	2258
485.622	2261
486.092	2327
486.561	2295
487.031	2363
487.5	2396
487.97	2386
488.439	2420
488.909	2459
489.378	2569
489.848	2576
490.318	2634
490.787	2741
491.257	2770
491.727	2824
492.197	2864
492.667	2841
493.137	2882
493.607	2893
494.077	2950
494.547	2931
495.017	2886
495.487	2933
495.957	2987
496.427	2913
496.897	2921
497.368	2950
497.838	2923
498.308	2958
498.779	2966
499.249	2960
499.719	2980
500.19	2991
500.66	3032
501.131	3050
501.602	3120
502.072	3109
502.543	3096
503.014	3220
503.484	3192
503.955	3271
504.426	3355
504.897	3326
505.368	3412
505.838	3488
506.309	3582
506.78	3684
507.251	3731
507.722	3800
508.194	3903
508.665	3908
509.136	3888
509.607	3996
510.078	4075
510.549	4150
511.021	4239
511.492	4225
511.964	4277
512.435	4298
512.906	4270
513.378	4306
513.849	4340
514.321	4367
514.793	4413
515.264	4453
515.736	4508
516.208	4591
516.679	4619
517.151	4662
517.623	4683
518.095	4715
518.567	4762
519.038	4865
519.51	4841
519.982	4925
520.454	4969
520.927	4967
521.399	5026
521.871	5103
522.343	5126
522.815	5164
523.287	5143
523.76	5173
524.232	5278
524.704	5336
525.177	5251
525.649	5239
526.122	5278
526.594	5160
527.067	5304
527.539	5332
528.012	5267
528.484	5257
528.957	5276
529.43	5245
529.903	5248
530.375	5413
530.848	5283
531.321	5372
531.794	5371
532.267	5462
532.74	5364
533.213	5300
533.686	5351
534.159	5324
534.632	5461
535.105	5461
535.578	5507
536.051	5573
536.525	5570
536.998	5528
537.471	5610
537.945	5552
538.418	5646
538.891	5672
539.365	5766
539.838	5809
540.312	5760
540.786	5839
541.259	5843
541.733	5887
542.206	5885
542.68	5789
543.154	5744
543.628	5742
544.101	5876
544.575	5834
545.049	5702
545.523	5824
545.997	5782
546.471	5813
546.945	5782
547.419	5865
547.893	5595
548.367	5664
548.842	5635
549.316	5626
549.79	5660
550.264	5637
550.739	5689
551.213	5710
551.687	5726
552.162	5727
552.636	5622
553.111	5615
553.585	5733
554.06	5635
554.534	5792
555.009	5747
555.484	5824
555.958	5879
556.433	5924
556.908	5981
557.383	5918
557.858	6047
558.333	6029
558.807	5924
559.282	5956
559.757	6118
560.232	6182
560.708	6082
561.183	6070
561.658	6120
562.133	6120
562.608	6070
563.083	6261
563.559	6082
564.034	6107
564.509	6072
564.985	6068
565.46	5987
565.936	6099
566.411	6116
566.887	6049
567.362	6099
567.838	6071
568.313	6129
568.789	6071
569.265	6097
569.74	6120
570.216	6039
570.692	6183
571.168	6171
571.644	6133
572.12	6093
572.596	6152
573.071	6128
573.547	6274
574.024	6274
574.5	6274
574.976	6309
575.452	6395
575.928	6398
576.404	6409
576.881	6614
577.357	6508
577.833	6567
578.31	6742
578.786	6787
579.262	6911
579.739	6795
580.215	6982
580.692	7005
581.169	7003
581.645	7014
582.122	7156
582.598	7120
583.075	7126
583.552	7212
584.029	7226
584.506	7189
584.982	7111
585.459	7239
585.936	7121
586.413	7236
586.89	7332
587.367	7221
587.844	7322
588.321	7244
588.799	7247
589.276	7199
589.753	7309
590.23	7292
590.707	7273
591.185	7294
591.662	7269
592.139	7300
592.617	7367
593.094	7384
593.572	7506
594.049	7544
594.527	7619
595.004	7603
595.482	7762
595.96	7701
596.437	7672
596.915	7841
597.393	7706
597.871	7870
598.349	7808
598.826	8002
599.304	8006
599.782	8136
600.26	8024
600.738	8123
601.216	8052
601.694	8135
602.173	8217
602.651	8261
603.129	8109
603.607	8147
604.085	8238
604.564	8244
605.042	8264
605.52	8206
605.999	8375
606.477	8207
606.956	8210
607.434	8192.5
607.913	8175
608.391	8161
608.87	8232
609.348	8187
609.827	8231
610.306	8256
610.785	8241
611.263	8271
611.742	8161
612.221	7951
612.7	8013
613.179	8059
613.658	7970
614.137	8179
614.616	8263
615.095	8081
615.574	8179
616.053	8293
616.532	8204
617.011	8144
617.491	8115
617.97	8086
618.449	8178
618.928	8293
619.408	8264
619.887	8363
620.367	8361
620.846	8381
621.326	8358
621.805	8558
622.285	8570
622.764	8606
623.244	8598
623.724	8665
624.203	8717
624.683	8525
625.163	8673
625.643	8677
626.123	8617
626.602	8761
627.082	8567
627.562	8570
628.042	8693
628.522	8603
629.002	8642
629.482	8691
629.963	8634
630.443	8480
630.923	8497
631.403	8554
631.883	8501
632.364	8577
632.844	8538
633.324	8504
633.805	8528
634.285	8439
634.766	8390
635.246	8394
635.727	8340
636.207	8374
636.688	8426
637.168	8464
637.649	8404
638.13	8374
638.611	8401
639.091	8360
639.572	8392
640.053	8370
640.534	8476
641.015	8434
641.496	8279
641.977	8370
642.458	8204
642.939	8160
643.42	8163
643.901	8207
644.382	8246
644.863	8211
645.345	8222
645.826	8136
646.307	8103
646.788	8295
647.27	8210
647.751	8294
648.233	8399
648.714	8243
649.196	8465
649.677	8407
650.159	8435
650.64	8337
651.122	8415
651.603	8257
652.085	8316
652.567	8280
653.049	8197
653.53	8201
654.012	8237
654.494	7994
654.976	7996
655.458	7969
655.94	8016
656.422	8170
656.904	8062
657.386	7955
657.868	7995
658.35	8063
658.833	8196
659.315	8142
659.797	8023
660.279	8073
660.762	8114
661.244	8027
661.726	7947
662.209	7927
662.691	7928
663.174	7792
663.656	7831
664.139	7879
664.621	7828
665.104	7772
665.587	7770
666.069	7725
666.552	7669
667.035	7566
667.517	7622
668	7683
668.483	7639
668.966	7529
669.449	7461
669.932	7535
670.415	7718
670.898	7658
671.381	7657
671.864	7665
672.347	7602
672.83	7592
673.313	7636
673.797	7555
674.28	7617
674.763	7563
675.247	7538
675.73	7566
676.213	7669
676.697	7727
677.18	7717
677.664	7745
678.147	7736
678.631	7751
679.114	7804
679.598	7846
680.082	7955
680.565	7972
681.049	7960
681.533	7944
682.017	8014
682.5	7956
682.984	7931
683.468	7859
683.952	7722
684.436	7873
684.92	7767
685.404	7805
685.888	7865
686.372	7778
686.856	7738
687.341	7829
687.825	7742
688.309	7789
688.793	7792
689.278	7776
689.762	7901
690.246	7844
690.731	7812
691.215	7771
691.7	7548
692.184	7600
692.669	7594
693.153	7627
693.638	7499
694.122	7517
694.607	7518
695.092	7361
695.577	7445
696.061	7332
696.546	7387
697.031	7364
697.516	7431
698.001	7391
698.486	7307
698.971	7395
699.456	7347
699.941	7358
700.426	7348
700.911	7413
701.396	7382
701.881	7363
702.366	7257
702.852	7212
703.337	7225
703.822	7192
704.308	7144
704.793	7144
705.278	7094
705.764	7095
706.249	7078
706.735	7082
707.22	7144
707.706	7026
708.191	7188
708.677	7213
709.163	7142
709.648	7172
710.134	7215
710.62	7132
711.106	7095
711.592	7152
712.077	7090
712.563	6921
713.049	6947
713.535	7124
714.021	7091
714.507	7031
714.993	6926
715.479	7066
715.966	6979
716.452	6946
716.938	6929
717.424	6739
717.91	6880
718.397	6784
718.883	6735
719.369	6769
719.856	6793
720.342	6890
720.829	6760
721.315	6712
721.802	6667
722.288	6699
722.775	6467
723.262	6294
723.748	6568
724.235	6502
724.722	6597
725.208	6478
725.695	6491
726.182	6482
726.669	6378
727.156	6393
727.643	6350
728.13	6348
728.617	6280
729.104	6265
729.591	6222
730.078	6260
730.565	6283
731.052	6221
731.539	6284
732.027	6190
732.514	6087
733.001	6130
733.488	6141
733.976	6175
734.463	6151
734.951	6131
735.438	6168
735.926	6047
736.413	6016
736.901	5897
737.388	5968
737.876	5920
738.364	5808
738.851	5818
739.339	5810
739.827	5848
740.314	5690
740.802	5749
741.29	5816
741.778	5761
742.266	5752
742.754	5774
743.242	5854
743.73	5767
744.218	5743
744.706	5645
745.194	5674
745.682	5635
746.17	5730
746.659	5807
747.147	5656
747.635	5680
748.123	5674
748.612	5615
749.1	5538
749.589	5540
750.077	5459
750.566	5376
751.054	5412
751.543	5430
752.031	5334
752.52	5339
753.008	5222
753.497	5200
753.986	5166
754.474	5133
754.963	5174
755.452	5108
755.941	5065
756.43	5035
756.919	4949
757.408	4883
757.896	4889
758.385	4944
758.875	4909
759.364	4875
759.853	4864
760.342	4798
760.831	4934
761.32	4911
761.809	4856
762.299	4894
762.788	4882
763.277	4849
763.767	4730
764.256	4676
764.745	4598
765.235	4681
765.724	4572
766.214	4613
766.703	4579
767.193	4492
767.683	4498
768.172	4413
768.662	4475
769.152	4484
769.641	4478
770.131	4343
770.621	4367
771.111	4267
771.601	4283
772.09	4251
772.58	4226
773.07	4256
773.56	4314
774.05	4218
774.54	4167
775.031	4113
775.521	4046
776.011	4045
776.501	4094
776.991	4071
777.482	4123
777.972	3981
778.462	3970
778.953	4008
779.443	4003
779.933	4026
780.424	3954
780.914	3962
781.405	3922
781.895	3833
782.386	3828
782.877	3792
783.367	3742
783.858	3744
784.349	3759
784.839	3720
785.33	3754
785.821	3723
786.312	3686
786.803	3675
787.293	3647
787.784	3579
788.275	3541
788.766	3495
789.257	3552
789.748	3453
790.24	3415
790.731	3445
791.222	3383
791.713	3376
792.204	3415
792.696	3370
793.187	3435
793.678	3419
794.169	3324
794.661	3353
795.152	3298
795.644	3270
796.135	3234
796.627	3241
797.118	3173
797.61	3172
798.101	3149
798.593	3183
799.085	3113
799.576	3103
800.068	3059
800.56	3071
801.052	2997
801.544	2983
802.035	3005
802.527	2969
803.019	2950
803.511	2956
804.003	2931
804.495	2930
804.987	2864
805.479	2788
805.971	2817
806.464	2830
806.956	2772
807.448	2765
807.94	2764
808.433	2747
808.925	2757
809.417	2756
809.91	2749
810.402	2689
810.894	2724
811.387	2713
811.879	2648
812.372	2640
812.865	2600
813.357	2612
813.85	2603
814.342	2560
814.835	2541
815.328	2534
815.821	2482
816.313	2468
816.806	2468
817.299	2467
817.792	2513
818.285	2507
818.778	2545
819.271	2519
819.764	2458
820.257	2445
820.75	2426
821.243	2409
821.736	2385
822.229	2418
822.722	2412
823.216	2472
