Data from lamp1bck_noballon_Subt4__3__375.txt Node

Date: Fri Apr 04 11:11:11 CEST 2025
User: fys-lab-0081
Spectrometer: S04999
Trigger mode: 0
Resolution mode: 1024 pixels
Integration Time (sec): 1.000000E-1
Scans to average: 1
Nonlinearity correction enabled: false
Boxcar width: 0
Baseline correction enabled: true
XAxis mode: Wavelengths
Number of Pixels in Spectrum: 1024
>>>>>Begin Spectral Data<<<<<
336.42	4
336.877	4
337.334	7
337.792	5
338.249	7
338.706	12
339.164	10
339.621	5
340.079	6
340.536	7
340.994	8
341.452	11
341.909	5
342.367	10
342.825	9
343.283	9
343.741	12
344.198	7
344.656	4
345.114	9
345.572	8
346.03	12
346.488	7
346.947	8
347.405	15
347.863	10
348.321	13
348.779	12
349.238	17
349.696	16
350.154	13
350.613	16
351.071	17
351.53	13
351.988	16
352.447	20
352.905	15
353.364	19
353.823	24
354.282	16
354.74	19
355.199	18
355.658	20
356.117	21
356.576	21
357.035	23
357.494	18
357.953	23
358.412	20
358.871	28
359.33	27
359.789	29
360.249	28
360.708	33
361.167	24
361.626	34
362.086	31
362.545	28
363.005	31
363.464	37
363.924	33
364.383	36
364.843	42
365.303	33
365.762	39
366.222	39
366.682	40
367.142	42
367.601	42
368.061	46
368.521	48
368.981	45
369.441	46
369.901	41
370.361	49
370.821	52
371.282	48
371.742	44
372.202	48
372.662	56
373.123	53
373.583	49
374.043	55
374.504	52
374.964	55
375.425	60
375.885	61
376.346	62
376.806	58
377.267	65
377.728	61
378.188	63
378.649	66
379.11	66
379.571	68
380.032	73
380.493	72
380.954	75
381.414	73
381.876	80
382.337	82
382.798	76
383.259	84
383.72	84
384.181	95
384.642	92
385.104	97
385.565	98
386.026	105
386.488	106
386.949	103
387.411	112
387.872	111
388.334	116
388.795	116
389.257	120
389.719	123
390.181	122
390.642	131
391.104	134
391.566	130
392.028	136
392.49	140
392.952	137
393.414	146
393.876	147
394.338	154
394.8	153
395.262	158
395.724	164
396.186	162
396.648	167
397.111	166
397.573	170
398.035	170
398.498	178
398.96	178
399.423	178
399.885	184
400.348	184
400.81	189
401.273	188
401.736	187
402.198	196
402.661	208
403.124	208
403.587	215
404.049	222
404.512	229
404.975	231
405.438	229
405.901	229
406.364	229
406.827	240
407.29	232
407.754	229
408.217	226
408.68	235
409.143	238
409.607	234
410.07	237
410.533	239
410.997	248
411.46	246
411.924	243
412.387	244
412.851	259
413.314	265
413.778	267
414.242	267
414.705	283
415.169	277
415.633	281
416.097	285
416.561	283
417.024	291
417.488	282
417.952	289
418.416	279
418.88	291
419.344	289
419.809	286
420.273	299
420.737	286
421.201	293
421.665	297
422.13	294
422.594	309
423.059	313
423.523	314
423.987	319
424.452	331
424.916	336
425.381	346
425.846	357
426.31	348
426.775	355
427.24	363
427.704	357
428.169	363
428.634	362
429.099	357
429.564	358
430.029	363
430.494	361
430.959	360
431.424	355
431.889	371
432.354	371
432.819	367
433.284	382
433.75	385
434.215	394
434.68	397
435.146	406
435.611	425
436.077	438
436.542	440
437.008	452
437.473	451
437.939	459
438.404	474
438.87	478
439.336	470
439.801	465
440.267	480
440.733	486
441.199	489
441.665	482
442.131	500
442.596	486
443.062	502
443.529	509
443.995	524
444.461	535
444.927	550
445.393	560
445.859	577
446.325	587
446.792	623
447.258	616
447.724	632
448.191	653
448.657	666
449.124	684
449.59	683
450.057	719
450.523	722
450.99	736
451.457	733
451.923	746
452.39	727
452.857	746
453.324	749
453.791	754
454.257	758
454.724	774
455.191	767
455.658	759
456.125	792
456.592	771
457.059	787
457.527	792
457.994	814
458.461	818
458.928	834
459.396	826
459.863	868
460.33	858
460.798	861
461.265	867
461.732	858
462.2	881
462.668	878
463.135	892
463.603	866
464.07	896
464.538	865
465.006	892
465.474	868
465.941	875
466.409	881
466.877	859
467.345	894
467.813	872
468.281	876
468.749	886
469.217	885
469.685	894
470.153	900
470.621	899
471.09	901
471.558	941
472.026	935
472.494	957
472.963	969
473.431	990
473.9	1015
474.368	1046
474.837	1064
475.305	1076
475.774	1096
476.242	1121
476.711	1130
477.18	1154
477.648	1128
478.117	1156
478.586	1142
479.055	1160
479.524	1165
479.993	1152
480.462	1153
480.93	1150
481.399	1153
481.869	1162
482.338	1140
482.807	1154
483.276	1158
483.745	1145
484.214	1180
484.684	1191
485.153	1193
485.622	1193
486.092	1220
486.561	1210
487.031	1245
487.5	1271
487.97	1266
488.439	1279
488.909	1304
489.378	1361
489.848	1357
490.318	1396
490.787	1448
491.257	1471
491.727	1493
492.197	1514
492.667	1504
493.137	1530
493.607	1524
494.077	1556
494.547	1549
495.017	1532
495.487	1552
495.957	1592
496.427	1552
496.897	1557
497.368	1572
497.838	1561
498.308	1575
498.779	1584
499.249	1585
499.719	1599
500.19	1609
500.66	1625
501.131	1636
501.602	1669
502.072	1671
502.543	1656
503.014	1720
503.484	1712
503.955	1749
504.426	1795
504.897	1784
505.368	1835
505.838	1884
506.309	1924
506.78	1978
507.251	2004
507.722	2043
508.194	2107
508.665	2096
509.136	2090
509.607	2154
510.078	2202
510.549	2245
511.021	2293
511.492	2292
511.964	2308
512.435	2318
512.906	2310
513.378	2335
513.849	2349
514.321	2357
514.793	2388
515.264	2417
515.736	2448
516.208	2502
516.679	2507
517.151	2536
517.623	2547
518.095	2569
518.567	2587
519.038	2653
519.51	2646
519.982	2680
520.454	2704
520.927	2703
521.399	2738
521.871	2780
522.343	2789
522.815	2817
523.287	2802
523.76	2833
524.232	2890
524.704	2927
525.177	2883
525.649	2870
526.122	2894
526.594	2841
527.067	2913
527.539	2930
528.012	2907
528.484	2899
528.957	2901
529.43	2895
529.903	2903
530.375	2979
530.848	2919
531.321	2970
531.794	2958
532.267	3017
532.74	2969
533.213	2940
533.686	2970
534.159	2958
534.632	3030
535.105	3028
535.578	3054
536.051	3083
536.525	3079
536.998	3066
537.471	3117
537.945	3079
538.418	3144
538.891	3159
539.365	3196
539.838	3215
540.312	3202
540.786	3252
541.259	3257
541.733	3286
542.206	3291
542.68	3244
543.154	3229
543.628	3213
544.101	3294
544.575	3267
545.049	3196
545.523	3266
545.997	3233
546.471	3265
546.945	3236
547.419	3289
547.893	3136
548.367	3186
548.842	3167
549.316	3164
549.79	3194
550.264	3187
550.739	3198
551.213	3201
551.687	3218
552.162	3221
552.636	3170
553.111	3174
553.585	3249
554.06	3198
554.534	3275
555.009	3255
555.484	3282
555.958	3323
556.433	3332
556.908	3360
557.383	3343
557.858	3426
558.333	3419
558.807	3359
559.282	3371
559.757	3469
560.232	3510
560.708	3458
561.183	3438
561.658	3477
562.133	3491
562.608	3464
563.083	3582
563.559	3479
564.034	3473
564.509	3458
564.985	3463
565.46	3433
565.936	3481
566.411	3497
566.887	3469
567.362	3500
567.838	3472
568.313	3498
568.789	3478
569.265	3495
569.74	3504
570.216	3460
570.692	3540
571.168	3537
571.644	3509
572.12	3484
572.596	3529
573.071	3515
573.547	3613
574.024	3625
574.5	3617
574.976	3628
575.452	3673
575.928	3684
576.404	3686
576.881	3812
577.357	3756
577.833	3785
578.31	3883
578.786	3919
579.262	3984
579.739	3930
580.215	4055
580.692	4056
581.169	4062
581.645	4080
582.122	4157
582.598	4144
583.075	4144
583.552	4189
584.029	4191
584.506	4185
584.982	4131
585.459	4211
585.936	4147
586.413	4207
586.89	4284
587.367	4208
587.844	4288
588.321	4232
588.799	4227
589.276	4178
589.753	4256
590.23	4272
590.707	4245
591.185	4248
591.662	4246
592.139	4261
592.617	4308
593.094	4312
593.572	4367
594.049	4410
594.527	4457
595.004	4455
595.482	4562
595.96	4508
596.437	4491
596.915	4598
597.393	4541
597.871	4657
598.349	4623
598.826	4739
599.304	4719
599.782	4808
600.26	4757
600.738	4823
601.216	4772
601.694	4805
602.173	4861
602.651	4881
603.129	4779
603.607	4808
604.085	4877
604.564	4896
605.042	4904
605.52	4854
605.999	4974
606.477	4859
606.956	4875
607.434	4869
607.913	4863
608.391	4848
608.87	4903
609.348	4879
609.827	4907
610.306	4916
610.785	4907
611.263	4913
611.742	4862
612.221	4745
612.7	4773
613.179	4796
613.658	4758
614.137	4881
614.616	4928
615.095	4814
615.574	4869
616.053	4938
616.532	4906
617.011	4870
617.491	4860
617.97	4837
618.449	4902
618.928	4955
619.408	4951
619.887	5014
620.367	5020
620.846	5035
621.326	5014
621.805	5141
622.285	5158
622.764	5176
623.244	5180
623.724	5211
624.203	5257
624.683	5116
625.163	5212
625.643	5221
626.123	5186
626.602	5299
627.082	5173
627.562	5189
628.042	5242
628.522	5182
629.002	5203
629.482	5255
629.963	5225
630.443	5128
630.923	5138
631.403	5185
631.883	5161
632.364	5199
632.844	5171
633.324	5162
633.805	5174
634.285	5127
634.766	5095
635.246	5086
635.727	5055
636.207	5086
636.688	5110
637.168	5130
637.649	5103
638.13	5086
638.611	5093
639.091	5075
639.572	5105
640.053	5095
640.534	5166
641.015	5136
641.496	5012
641.977	5088
642.458	4996
642.939	4967
643.42	4974
643.901	4997
644.382	5021
644.863	5023
645.345	5042
645.826	4982
646.307	4945
646.788	5077
647.27	5033
647.751	5090
648.233	5147
648.714	5046
649.196	5193
649.677	5160
650.159	5163
650.64	5101
651.122	5155
651.603	5060
652.085	5089
652.567	5076
653.049	5026
653.53	5037
654.012	5072
654.494	4910
654.976	4914
655.458	4904
655.94	4933
656.422	5016
656.904	4952
657.386	4889
657.868	4933
658.35	4969
658.833	5054
659.315	5029
659.797	4948
660.279	4960
660.762	4983
661.244	4945
661.726	4900
662.209	4901
662.691	4885
663.174	4785
663.656	4837
664.139	4860
664.621	4842
665.104	4786
665.587	4811
666.069	4795
666.552	4763
667.035	4688
667.517	4719
668	4752
668.483	4736
668.966	4664
669.449	4647
669.932	4684
670.415	4790
670.898	4754
671.381	4754
671.864	4756
672.347	4708
672.83	4706
673.313	4736
673.797	4696
674.28	4743
674.763	4704
675.247	4698
675.73	4718
676.213	4771
676.697	4802
677.18	4776
677.664	4798
678.147	4808
678.631	4806
679.114	4866
679.598	4921
680.082	5006
680.565	5010
681.049	4994
681.533	4979
682.017	5005
682.5	4971
682.984	4965
683.468	4946
683.952	4847
684.436	4950
684.92	4887
685.404	4896
685.888	4939
686.372	4884
686.856	4841
687.341	4906
687.825	4858
688.309	4879
688.793	4895
689.278	4877
689.762	4956
690.246	4930
690.731	4922
691.215	4902
691.7	4738
692.184	4774
692.669	4764
693.153	4790
693.638	4708
694.122	4701
694.607	4715
695.092	4606
695.577	4669
696.061	4608
696.546	4641
697.031	4643
697.516	4698
698.001	4687
698.486	4629
698.971	4697
699.456	4640
699.941	4651
700.426	4646
700.911	4699
701.396	4669
701.881	4672
702.366	4608
702.852	4579
703.337	4593
703.822	4573
704.308	4510
704.793	4513
705.278	4494
705.764	4505
706.249	4478
706.735	4498
707.22	4520
707.706	4434
708.191	4544
708.677	4556
709.163	4525
709.648	4531
710.134	4559
710.62	4509
711.106	4499
711.592	4544
712.077	4496
712.563	4389
713.049	4419
713.535	4545
714.021	4518
714.507	4479
714.993	4411
715.479	4490
715.966	4432
716.452	4427
716.938	4423
717.424	4295
717.91	4390
718.397	4316
718.883	4292
719.369	4333
719.856	4355
720.342	4404
720.829	4321
721.315	4286
721.802	4246
722.288	4276
722.775	4140
723.262	4025
723.748	4204
724.235	4175
724.722	4210
725.208	4130
725.695	4137
726.182	4138
726.669	4076
727.156	4083
727.643	4060
728.13	4071
728.617	4034
729.104	4018
729.591	3972
730.078	3995
730.565	4009
731.052	3980
731.539	4027
732.027	3964
732.514	3898
733.001	3928
733.488	3934
733.976	3954
734.463	3944
734.951	3927
735.438	3969
735.926	3903
736.413	3879
736.901	3804
737.388	3854
737.876	3817
738.364	3743
738.851	3758
739.339	3750
739.827	3770
740.314	3664
740.802	3702
741.29	3744
741.778	3692
742.266	3706
742.754	3719
743.242	3783
743.73	3720
744.218	3701
744.706	3639
745.194	3658
745.682	3641
746.17	3699
746.659	3737
747.147	3660
747.635	3685
748.123	3684
748.612	3644
749.1	3596
749.589	3589
750.077	3549
750.566	3494
751.054	3513
751.543	3523
752.031	3456
752.52	3463
753.008	3382
753.497	3362
753.986	3345
754.474	3331
754.963	3351
755.452	3315
755.941	3291
756.43	3269
756.919	3220
757.408	3160
757.896	3177
758.385	3216
758.875	3201
759.364	3171
759.853	3182
760.342	3136
760.831	3215
761.32	3208
761.809	3179
762.299	3196
762.788	3181
763.277	3160
763.767	3090
764.256	3048
764.745	2982
765.235	3039
765.724	2977
766.214	3018
766.703	2996
767.193	2936
767.683	2945
768.172	2897
768.662	2922
769.152	2917
769.641	2922
770.131	2828
770.621	2840
771.111	2781
771.601	2796
772.09	2783
772.58	2766
773.07	2774
773.56	2806
774.05	2744
774.54	2720
775.031	2692
775.521	2654
776.011	2652
776.501	2677
776.991	2653
777.482	2698
777.972	2605
778.462	2592
778.953	2627
779.443	2630
779.933	2640
780.424	2594
780.914	2599
781.405	2570
781.895	2519
782.386	2520
782.877	2499
783.367	2463
783.858	2476
784.349	2468
784.839	2448
785.33	2469
785.821	2444
786.312	2414
786.803	2407
787.293	2387
787.784	2348
788.275	2318
788.766	2282
789.257	2331
789.748	2268
790.24	2252
790.731	2257
791.222	2213
791.713	2208
792.204	2245
792.696	2219
793.187	2277
793.678	2261
794.169	2197
794.661	2210
795.152	2181
795.644	2154
796.135	2139
796.627	2141
797.118	2105
797.61	2104
798.101	2089
798.593	2096
799.085	2065
799.576	2054
800.068	2026
800.56	2034
801.052	1992
801.544	1984
802.035	1992
802.527	1966
803.019	1955
803.511	1954
804.003	1926
804.495	1933
804.987	1894
805.479	1854
805.971	1864
806.464	1875
806.956	1827
807.448	1828
807.94	1826
808.433	1819
808.925	1831
809.417	1832
809.91	1825
810.402	1786
810.894	1806
811.387	1801
811.879	1761
812.372	1759
812.865	1736
813.357	1740
813.85	1746
814.342	1715
814.835	1691
815.328	1682
815.821	1646
816.313	1639
816.806	1642
817.299	1646
817.792	1660
818.285	1661
818.778	1686
819.271	1670
819.764	1638
820.257	1633
820.75	1620
821.243	1607
821.736	1577
822.229	1602
822.722	1608
823.216	1651
