Data from lamp1bck_noballon_Subt4__25__397.txt Node

Date: Fri Apr 04 11:11:13 CEST 2025
User: fys-lab-0081
Spectrometer: S04999
Trigger mode: 0
Resolution mode: 1024 pixels
Integration Time (sec): 1.000000E-1
Scans to average: 1
Nonlinearity correction enabled: false
Boxcar width: 0
Baseline correction enabled: true
XAxis mode: Wavelengths
Number of Pixels in Spectrum: 1024
>>>>>Begin Spectral Data<<<<<
336.42	0
336.877	0
337.334	7
337.792	6
338.249	6
338.706	10
339.164	7
339.621	1
340.079	7
340.536	5
340.994	5
341.452	8
341.909	7
342.367	9
342.825	13
343.283	10
343.741	9
344.198	4
344.656	7
345.114	14
345.572	5
346.03	10
346.488	9
346.947	13
347.405	9
347.863	9
348.321	13
348.779	11
349.238	11
349.696	13
350.154	9
350.613	16
351.071	14
351.53	9
351.988	14
352.447	16
352.905	14
353.364	17
353.823	28
354.282	16
354.74	16
355.199	22
355.658	22
356.117	22
356.576	16
357.035	23
357.494	22
357.953	21
358.412	22
358.871	24
359.33	29
359.789	26
360.249	25
360.708	31
361.167	23
361.626	32
362.086	36
362.545	35
363.005	29
363.464	37
363.924	30
364.383	37
364.843	34
365.303	36
365.762	42
366.222	41
366.682	39
367.142	39
367.601	44
368.061	43
368.521	46
368.981	45
369.441	46
369.901	39
370.361	45
370.821	53
371.282	46
371.742	47
372.202	49
372.662	49
373.123	51
373.583	48
374.043	55
374.504	57
374.964	56
375.425	58
375.885	61
376.346	61
376.806	58
377.267	64
377.728	64
378.188	66
378.649	67
379.11	63
379.571	66
380.032	66
380.493	76
380.954	75
381.414	73
381.876	82
382.337	81
382.798	80
383.259	88
383.72	84
384.181	92
384.642	92
385.104	100
385.565	97
386.026	102
386.488	112
386.949	108
387.411	116
387.872	108
388.334	114
388.795	115
389.257	123
389.719	123
390.181	126
390.642	130
391.104	131
391.566	128
392.028	137
392.49	140
392.952	140
393.414	140
393.876	151
394.338	154
394.8	152
395.262	155
395.724	162
396.186	163
396.648	167
397.111	161
397.573	167
398.035	165
398.498	176
398.96	179
399.423	177
399.885	179
400.348	183
400.81	190
401.273	186
401.736	188
402.198	198
402.661	205
403.124	211
403.587	213
404.049	218.5
404.512	224
404.975	234
405.438	225
405.901	224
406.364	223
406.827	233
407.29	231
407.754	230
408.217	224
408.68	229
409.143	230
409.607	231
410.07	231
410.533	242
410.997	247
411.46	251
411.924	242
412.387	242
412.851	256
413.314	267
413.778	270
414.242	268
414.705	280
415.169	277
415.633	284
416.097	283
416.561	282
417.024	293
417.488	278
417.952	291
418.416	281
418.88	296
419.344	288
419.809	286
420.273	294
420.737	283
421.201	293
421.665	300
422.13	295
422.594	304
423.059	313
423.523	316
423.987	321
424.452	328
424.916	334
425.381	342
425.846	345
426.31	344
426.775	349
427.24	357
427.704	350
428.169	364
428.634	359
429.099	358
429.564	353
430.029	363
430.494	357
430.959	358
431.424	353
431.889	369
432.354	369
432.819	364
433.284	377
433.75	379
434.215	393
434.68	394
435.146	406
435.611	425
436.077	433
436.542	442
437.008	453
437.473	453
437.939	453
438.404	475
438.87	474
439.336	463
439.801	466
440.267	477
440.733	484
441.199	485
441.665	480
442.131	498
442.596	483
443.062	502
443.529	512
443.995	521
444.461	533
444.927	557
445.393	552
445.859	579
446.325	585
446.792	618
447.258	615
447.724	632
448.191	654
448.657	665
449.124	684
449.59	678
450.057	710
450.523	717
450.99	736
451.457	731
451.923	738
452.39	727
452.857	747
453.324	747
453.791	752
454.257	757
454.724	770
455.191	762
455.658	758
456.125	793
456.592	768
457.059	787
457.527	788
457.994	815
458.461	815
458.928	834
459.396	829
459.863	864
460.33	856
460.798	855
461.265	861
461.732	850
462.2	880
462.668	876
463.135	891
463.603	866
464.07	892
464.538	866
465.006	890
465.474	866
465.941	880
466.409	883
466.877	858
467.345	888
467.813	872
468.281	878
468.749	886
469.217	887
469.685	893
470.153	904
470.621	895
471.09	900
471.558	931
472.026	930
472.494	962
472.963	974
473.431	993
473.9	1014
474.368	1044
474.837	1066
475.305	1078
475.774	1093
476.242	1118
476.711	1129
477.18	1149
477.648	1129
478.117	1150
478.586	1139
479.055	1156
479.524	1167
479.993	1149
480.462	1156
480.93	1153
481.399	1148
481.869	1160
482.338	1140
482.807	1156
483.276	1156
483.745	1142
484.214	1179
484.684	1189
485.153	1184
485.622	1187
486.092	1220
486.561	1206
487.031	1249
487.5	1264
487.97	1260
488.439	1277
488.909	1304
489.378	1353
489.848	1354
490.318	1393
490.787	1446
491.257	1469
491.727	1491
492.197	1507
492.667	1499
493.137	1530
493.607	1525
494.077	1553
494.547	1551
495.017	1530
495.487	1550
495.957	1586
496.427	1554
496.897	1557
497.368	1561
497.838	1552
498.308	1573
498.779	1581
499.249	1575
499.719	1597
500.19	1599
500.66	1615
501.131	1632
501.602	1668
502.072	1661
502.543	1655
503.014	1721
503.484	1704
503.955	1747
504.426	1787
504.897	1780
505.368	1829
505.838	1874
506.309	1920
506.78	1975
507.251	1998
507.722	2046
508.194	2097
508.665	2105
509.136	2089
509.607	2156
510.078	2199
510.549	2236
511.021	2297
511.492	2293
511.964	2307
512.435	2311
512.906	2303
513.378	2325
513.849	2345
514.321	2355
514.793	2386
515.264	2415
515.736	2446
516.208	2492
516.679	2499
517.151	2528
517.623	2541
518.095	2564
518.567	2579
519.038	2644
519.51	2637
519.982	2682
520.454	2691
520.927	2696
521.399	2735
521.871	2771
522.343	2784
522.815	2812
523.287	2800
523.76	2825
524.232	2885
524.704	2921
525.177	2874
525.649	2867
526.122	2887
526.594	2830
527.067	2911
527.539	2922
528.012	2899
528.484	2893
528.957	2887
529.43	2891
529.903	2895
530.375	2974
530.848	2908
531.321	2970
531.794	2951
532.267	3016
532.74	2964
533.213	2930
533.686	2959
534.159	2950
534.632	3029
535.105	3020
535.578	3053
536.051	3078
536.525	3079
536.998	3062
537.471	3112
537.945	3069
538.418	3134
538.891	3153
539.365	3184
539.838	3208
540.312	3204
540.786	3242
541.259	3248
541.733	3289
542.206	3289
542.68	3235
543.154	3216
543.628	3214
544.101	3291
544.575	3270
545.049	3192
545.523	3263
545.997	3239
546.471	3248
546.945	3229
547.419	3284
547.893	3128
548.367	3169
548.842	3156
549.316	3161
549.79	3186
550.264	3177
550.739	3201
551.213	3205
551.687	3208
552.162	3208
552.636	3168
553.111	3179
553.585	3234
554.06	3189
554.534	3271
555.009	3239
555.484	3278
555.958	3311
556.433	3326
556.908	3362
557.383	3335
557.858	3413
558.333	3414
558.807	3352
559.282	3364
559.757	3470
560.232	3514
560.708	3449
561.183	3427
561.658	3468
562.133	3480
562.608	3450
563.083	3569
563.559	3460
564.034	3460
564.509	3460
564.985	3459
565.46	3419
565.936	3473
566.411	3485
566.887	3460
567.362	3494
567.838	3467
568.313	3501
568.789	3464
569.265	3494
569.74	3500
570.216	3452
570.692	3533
571.168	3529
571.644	3513
572.12	3480
572.596	3530
573.071	3509
573.547	3599
574.024	3620
574.5	3617
574.976	3621
575.452	3677
575.928	3671
576.404	3686
576.881	3811
577.357	3744
577.833	3775
578.31	3887
578.786	3910
579.262	3979
579.739	3909
580.215	4040
580.692	4054
581.169	4059
581.645	4070
582.122	4145
582.598	4132
583.075	4136
583.552	4174
584.029	4183
584.506	4181
584.982	4125
585.459	4200
585.936	4143
586.413	4204
586.89	4266
587.367	4205
587.844	4273
588.321	4221
588.799	4224
589.276	4168
589.753	4239
590.23	4266
590.707	4246
591.185	4244
591.662	4235
592.139	4256
592.617	4300
593.094	4304
593.572	4365
594.049	4398
594.527	4455
595.004	4441
595.482	4552
595.96	4492
596.437	4486
596.915	4594
597.393	4539
597.871	4653
598.349	4618
598.826	4726
599.304	4714
599.782	4795
600.26	4743
600.738	4811
601.216	4764
601.694	4804
602.173	4854
602.651	4873
603.129	4773
603.607	4803
604.085	4871
604.564	4894
605.042	4892
605.52	4851
605.999	4949
606.477	4856
606.956	4874
607.434	4861
607.913	4848
608.391	4848
608.87	4898
609.348	4878
609.827	4902
610.306	4918
610.785	4891
611.263	4906
611.742	4851
612.221	4729
612.7	4768
613.179	4799
613.658	4748
614.137	4876
614.616	4920
615.095	4812
615.574	4863
616.053	4929
616.532	4900
617.011	4866
617.491	4848
617.97	4827
618.449	4889
618.928	4940
619.408	4940
619.887	5001
620.367	5004
620.846	5027
621.326	5007
621.805	5150
622.285	5149
622.764	5166
623.244	5172
623.724	5205
624.203	5242
624.683	5108
625.163	5204
625.643	5207
626.123	5173
626.602	5287
627.082	5163
627.562	5159
628.042	5228
628.522	5169
629.002	5187
629.482	5241
629.963	5215
630.443	5118
630.923	5121
631.403	5179
631.883	5149
632.364	5193
632.844	5171
633.324	5148
633.805	5159
634.285	5108
634.766	5088
635.246	5083
635.727	5045
636.207	5070
636.688	5107
637.168	5121
637.649	5094
638.13	5075
638.611	5083
639.091	5070
639.572	5104
640.053	5096
640.534	5163
641.015	5125
641.496	5016
641.977	5085
642.458	4992
642.939	4953
643.42	4968
643.901	4988
644.382	5016
644.863	5015
645.345	5028
645.826	4978
646.307	4944
646.788	5065
647.27	5027
647.751	5079
648.233	5146
648.714	5039
649.196	5186
649.677	5141
650.159	5162
650.64	5088
651.122	5148
651.603	5055
652.085	5069
652.567	5060
653.049	5024
653.53	5029
654.012	5062
654.494	4906
654.976	4920
655.458	4893
655.94	4924
656.422	5016
656.904	4941
657.386	4889
657.868	4930
658.35	4960
658.833	5043
659.315	5014
659.797	4948
660.279	4949
660.762	4972
661.244	4952
661.726	4886
662.209	4896
662.691	4887
663.174	4779
663.656	4820
664.139	4853
664.621	4829
665.104	4784
665.587	4803
666.069	4791
666.552	4749
667.035	4684
667.517	4704
668	4746
668.483	4728
668.966	4660
669.449	4630
669.932	4684
670.415	4783
670.898	4746
671.381	4742
671.864	4753
672.347	4707
672.83	4695
673.313	4728
673.797	4695
674.28	4734
674.763	4704
675.247	4694
675.73	4707
676.213	4760
676.697	4791
677.18	4776
677.664	4785
678.147	4801
678.631	4806
679.114	4861
679.598	4917
680.082	4995
680.565	4996
681.049	4980
681.533	4970
682.017	4989
682.5	4960
682.984	4968
683.468	4933
683.952	4834
684.436	4934
684.92	4878
685.404	4899
685.888	4926
686.372	4878
686.856	4833
687.341	4893
687.825	4858
688.309	4882
688.793	4886
689.278	4874
689.762	4963
690.246	4922
690.731	4918
691.215	4889
691.7	4737
692.184	4757
692.669	4761
693.153	4784
693.638	4698
694.122	4694
694.607	4697
695.092	4600
695.577	4666
696.061	4590
696.546	4633
697.031	4645
697.516	4691
698.001	4672
698.486	4619
698.971	4685
699.456	4635
699.941	4648
700.426	4644
700.911	4700
701.396	4663
701.881	4660
702.366	4594
702.852	4571
703.337	4575
703.822	4560
704.308	4509
704.793	4516
705.278	4485
705.764	4490
706.249	4472
706.735	4496
707.22	4515
707.706	4437
708.191	4541
708.677	4553
709.163	4521
709.648	4522
710.134	4550
710.62	4507
711.106	4489
711.592	4532
712.077	4500
712.563	4376
713.049	4409
713.535	4529
714.021	4525
714.507	4471
714.993	4408
715.479	4491
715.966	4436
716.452	4417
716.938	4415
717.424	4292
717.91	4377
718.397	4318
718.883	4295
719.369	4314
719.856	4347
720.342	4401
720.829	4318
721.315	4280
721.802	4241
722.288	4276
722.775	4126
723.262	4028
723.748	4206
724.235	4157
724.722	4206
725.208	4127
725.695	4140
726.182	4127
726.669	4060
727.156	4088
727.643	4047
728.13	4071
728.617	4026
729.104	3997
729.591	3964
730.078	3992
730.565	4008
731.052	3971
731.539	4003
732.027	3964
732.514	3892
733.001	3926
733.488	3926
733.976	3943
734.463	3935
734.951	3930
735.438	3949
735.926	3882
736.413	3878
736.901	3805
737.388	3847
737.876	3810
738.364	3747
738.851	3745
739.339	3737
739.827	3766
740.314	3658
740.802	3691
741.29	3742
741.778	3687
742.266	3698
742.754	3714
743.242	3775
743.73	3715
744.218	3697
744.706	3638
745.194	3661
745.682	3630
746.17	3694
746.659	3744
747.147	3659
747.635	3669
748.123	3681
748.612	3637
749.1	3593
749.589	3579
750.077	3545
750.566	3481
751.054	3509
751.543	3518
752.031	3456
752.52	3458
753.008	3382
753.497	3357
753.986	3333
754.474	3321
754.963	3351
755.452	3304
755.941	3283
756.43	3274
756.919	3208
757.408	3159
757.896	3167
758.385	3212
758.875	3197
759.364	3174
759.853	3168
760.342	3138
760.831	3217
761.32	3208
761.809	3165
762.299	3181
762.788	3171
763.277	3154
763.767	3084
764.256	3039
764.745	2982
765.235	3041
765.724	2977
766.214	3010
766.703	2986
767.193	2939
767.683	2947
768.172	2883
768.662	2908
769.152	2911
769.641	2914
770.131	2823
770.621	2833
771.111	2774
771.601	2791
772.09	2770
772.58	2757
773.07	2765
773.56	2810
774.05	2736
774.54	2715
775.031	2689
775.521	2644
776.011	2648
776.501	2660
776.991	2648
777.482	2698
777.972	2596
778.462	2585
778.953	2624
779.443	2624
779.933	2633
780.424	2590
780.914	2595
781.405	2568
781.895	2515
782.386	2513
782.877	2496
783.367	2456
783.858	2465
784.349	2467
784.839	2449
785.33	2471
785.821	2449
786.312	2416
786.803	2404
787.293	2382
787.784	2350
788.275	2311
788.766	2277
789.257	2324
789.748	2268
790.24	2240
790.731	2256
791.222	2209
791.713	2203
792.204	2234
792.696	2217
793.187	2277
793.678	2257
794.169	2198
794.661	2212
795.152	2181
795.644	2148
796.135	2134
796.627	2135
797.118	2100
797.61	2103
798.101	2083
798.593	2099
799.085	2059
799.576	2059
800.068	2019
800.56	2036
801.052	1988
801.544	1979
802.035	1992
802.527	1967
803.019	1948
803.511	1949
804.003	1927
804.495	1921
804.987	1888
805.479	1846
805.971	1864
806.464	1870
806.956	1825
807.448	1824
807.94	1826
808.433	1820
808.925	1820
809.417	1831
809.91	1821
810.402	1782
810.894	1799
811.387	1800
811.879	1758
812.372	1757
812.865	1735
813.357	1740
813.85	1738
814.342	1708
814.835	1694
815.328	1677
815.821	1645
816.313	1633
816.806	1637
817.299	1632
817.792	1661
818.285	1658
818.778	1686
819.271	1671
819.764	1636
820.257	1632
820.75	1615
821.243	1599
821.736	1576
822.229	1601
822.722	1600
823.216	1649
