Data from lamp5helium_zwak_Subt4__5__160.txt Node

Date: Wed Apr 09 10:14:00 CEST 2025
User: fys-lab-0081
Spectrometer: S04999
Trigger mode: 0
Resolution mode: 1024 pixels
Integration Time (sec): 1.000000E-1
Scans to average: 1
Nonlinearity correction enabled: false
Boxcar width: 0
Baseline correction enabled: true
XAxis mode: Wavelengths
Number of Pixels in Spectrum: 1024
>>>>>Begin Spectral Data<<<<<
336.42	2
336.877	1
337.334	-2
337.792	-1
338.249	3
338.706	4
339.164	-3
339.621	2
340.079	2
340.536	6
340.994	4
341.452	-2
341.909	0
342.367	-5
342.825	-1
343.283	2
343.741	0
344.198	-1
344.656	-1
345.114	-4
345.572	2
346.03	5
346.488	5
346.947	-4
347.405	3
347.863	-2
348.321	7
348.779	-4
349.238	3
349.696	4
350.154	-2
350.613	-1
351.071	1
351.53	5
351.988	5
352.447	1
352.905	-1
353.364	-6
353.823	-2
354.282	6
354.74	-1
355.199	0
355.658	2
356.117	3
356.576	5
357.035	1
357.494	0
357.953	1
358.412	5
358.871	-5
359.33	0
359.789	1
360.249	-2
360.708	1
361.167	0
361.626	5
362.086	0
362.545	5
363.005	7
363.464	-3
363.924	3
364.383	6
364.843	0
365.303	3
365.762	2
366.222	0
366.682	0
367.142	8
367.601	4
368.061	1
368.521	4
368.981	1
369.441	4
369.901	9
370.361	0
370.821	-2
371.282	3
371.742	5
372.202	4
372.662	5
373.123	2
373.583	0
374.043	3
374.504	0
374.964	-2
375.425	0
375.885	3
376.346	2
376.806	3
377.267	3
377.728	6
378.188	7
378.649	7
379.11	5
379.571	2
380.032	1
380.493	3
380.954	6
381.414	-1
381.876	5
382.337	6
382.798	9
383.259	12
383.72	1
384.181	5
384.642	4
385.104	12
385.565	17
386.026	7
386.488	6
386.949	6
387.411	7
387.872	8
388.334	7
388.795	6
389.257	9
389.719	12
390.181	6
390.642	8
391.104	4
391.566	6
392.028	14
392.49	5
392.952	13
393.414	16
393.876	9
394.338	7
394.8	3
395.262	13
395.724	11
396.186	10
396.648	10
397.111	11
397.573	15
398.035	11
398.498	10
398.96	11
399.423	11
399.885	15
400.348	11
400.81	16
401.273	8
401.736	16
402.198	14
402.661	15
403.124	9
403.587	15
404.049	15
404.512	15
404.975	19
405.438	14
405.901	15
406.364	18
406.827	15
407.29	17
407.754	23
408.217	23
408.68	15
409.143	15
409.607	22
410.07	17
410.533	18
410.997	19
411.46	16
411.924	20
412.387	22
412.851	19
413.314	22
413.778	22
414.242	23
414.705	19
415.169	24
415.633	21
416.097	24
416.561	26
417.024	23
417.488	29
417.952	27
418.416	30
418.88	22
419.344	19
419.809	26
420.273	25
420.737	21
421.201	18
421.665	28
422.13	29
422.594	27
423.059	28
423.523	31
423.987	28
424.452	29
424.916	32
425.381	30
425.846	31
426.31	33
426.775	31
427.24	36
427.704	27
428.169	34
428.634	34
429.099	31
429.564	34
430.029	35
430.494	36
430.959	35
431.424	31
431.889	37
432.354	37
432.819	37
433.284	36
433.75	37
434.215	37
434.68	43
435.146	45
435.611	44
436.077	41
436.542	41
437.008	44
437.473	47
437.939	49
438.404	50
438.87	52
439.336	49
439.801	48
440.267	48
440.733	54
441.199	56
441.665	51
442.131	57
442.596	50
443.062	52
443.529	60
443.995	56
444.461	55
444.927	60
445.393	59
445.859	62
446.325	65
446.792	72
447.258	72
447.724	70
448.191	78
448.657	73
449.124	78
449.59	79
450.057	85
450.523	79
450.99	81
451.457	86
451.923	82
452.39	85
452.857	84
453.324	84
453.791	84
454.257	91
454.724	90
455.191	93
455.658	85
456.125	94
456.592	94
457.059	96
457.527	93
457.994	100
458.461	100
458.928	105
459.396	102
459.863	100
460.33	103
460.798	107
461.265	105
461.732	109
462.2	112
462.668	111
463.135	112
463.603	107
464.07	106
464.538	113
465.006	118
465.474	112
465.941	109
466.409	108
466.877	106
467.345	113
467.813	119
468.281	112
468.749	111
469.217	116
469.685	116
470.153	122
470.621	117
471.09	122
471.558	123
472.026	126
472.494	130
472.963	129
473.431	139
473.9	144
474.368	144
474.837	145
475.305	146
475.774	154
476.242	161
476.711	157
477.18	161
477.648	157
478.117	162
478.586	160
479.055	157
479.524	162
479.993	162
480.462	162
480.93	170
481.399	159
481.869	164
482.338	167
482.807	163
483.276	169
483.745	168
484.214	170
484.684	174
485.153	172
485.622	170
486.092	175
486.561	176
487.031	181
487.5	184
487.97	193
488.439	197
488.909	202
489.378	206
489.848	207
490.318	213
490.787	219
491.257	231
491.727	229
492.197	237
492.667	231
493.137	237
493.607	241
494.077	238
494.547	235
495.017	241
495.487	244
495.957	252
496.427	244
496.897	245
497.368	249
497.838	247
498.308	251
498.779	251
499.249	252
499.719	258
500.19	262
500.66	259
501.131	265
501.602	270
502.072	268
502.543	279
503.014	287
503.484	289
503.955	295
504.426	309
504.897	317
505.368	317
505.838	318
506.309	331
506.78	339
507.251	345
507.722	350
508.194	367
508.665	367
509.136	363
509.607	379
510.078	384
510.549	387
511.021	401
511.492	400
511.964	409
512.435	413
512.906	410
513.378	419
513.849	423
514.321	426
514.793	430
515.264	438
515.736	443
516.208	447
516.679	452
517.151	452
517.623	457
518.095	467
518.567	475
519.038	484
519.51	481
519.982	498
520.454	502
520.927	504
521.399	514
521.871	527
522.343	525
522.815	527
523.287	525
523.76	535
524.232	542
524.704	548
525.177	537
525.649	539
526.122	552
526.594	545
527.067	559
527.539	564
528.012	556
528.484	563
528.957	567
529.43	564
529.903	558
530.375	575
530.848	571
531.321	581
531.794	577
532.267	591
532.74	581
533.213	586
533.686	598
534.159	589
534.632	607
535.105	609
535.578	621
536.051	620
536.525	627
536.998	637
537.471	648
537.945	644
538.418	654
538.891	653
539.365	661
539.838	671
540.312	674
540.786	681
541.259	675
541.733	684
542.206	683
542.68	678
543.154	677
543.628	675
544.101	702
544.575	697
545.049	674
545.523	689
545.997	697
546.471	703
546.945	696
547.419	706
547.893	681
548.367	694
548.842	691
549.316	689
549.79	703
550.264	697
550.739	714
551.213	700
551.687	700
552.162	706
552.636	710
553.111	703
553.585	735
554.06	716
554.534	731
555.009	725
555.484	744
555.958	754
556.433	752
556.908	761
557.383	754
557.858	782
558.333	786
558.807	782
559.282	787
559.757	815
560.232	813
560.708	804
561.183	793
561.658	808
562.133	809
562.608	803
563.083	818
563.559	806
564.034	818
564.509	813
564.985	817
565.46	811
565.936	826
566.411	836
566.887	828
567.362	827
567.838	831
568.313	836
568.789	827
569.265	825
569.74	841
570.216	836
570.692	842
571.168	844
571.644	840
572.12	848
572.596	856
573.071	858
573.547	876
574.024	891
574.5	901
574.976	905
575.452	926
575.928	920
576.404	930
576.881	960
577.357	943
577.833	948
578.31	979
578.786	1000
579.262	1017
579.739	1005
580.215	1029
580.692	1015
581.169	1029
581.645	1021
582.122	1046
582.598	1046
583.075	1047
583.552	1064
584.029	1058
584.506	1057
584.982	1049
585.459	1074
585.936	1069
586.413	1084
586.89	1098
587.367	1091
587.844	1110
588.321	1109
588.799	1097
589.276	1088
589.753	1107
590.23	1120
590.707	1118
591.185	1111
591.662	1111
592.139	1130
592.617	1146
593.094	1153
593.572	1153
594.049	1164
594.527	1172
595.004	1182
595.482	1215
595.96	1204
596.437	1207
596.915	1238
597.393	1221
597.871	1257
598.349	1235
598.826	1259
599.304	1262
599.782	1291
600.26	1276
600.738	1309
601.216	1306
601.694	1322
602.173	1336
602.651	1344
603.129	1323
603.607	1341
604.085	1342
604.564	1337
605.042	1345
605.52	1340
605.999	1370
606.477	1342
606.956	1348
607.434	1357
607.913	1366
608.391	1366
608.87	1367
609.348	1359
609.827	1358
610.306	1364
610.785	1375
611.263	1383
611.742	1375
612.221	1354
612.7	1372
613.179	1383
613.658	1363
614.137	1386
614.616	1392
615.095	1364
615.574	1392
616.053	1410
616.532	1396
617.011	1396
617.491	1409
617.97	1418
618.449	1443
618.928	1460
619.408	1443
619.887	1454
620.367	1464
620.846	1485
621.326	1476
621.805	1518
622.285	1511
622.764	1521
623.244	1522
623.724	1536
624.203	1538
624.683	1507
625.163	1540
625.643	1541
626.123	1532
626.602	1560
627.082	1534
627.562	1538
628.042	1575
628.522	1559
629.002	1549
629.482	1560
629.963	1556
630.443	1553
630.923	1562
631.403	1571
631.883	1572
632.364	1578
632.844	1552
633.324	1568
633.805	1582
634.285	1566
634.766	1557
635.246	1556
635.727	1567
636.207	1568
636.688	1577
637.168	1584
637.649	1554
638.13	1544
638.611	1564
639.091	1561
639.572	1553
640.053	1543
640.534	1556
641.015	1558
641.496	1544
641.977	1574
642.458	1553
642.939	1558
643.42	1564
643.901	1579
644.382	1588
644.863	1589
645.345	1602
645.826	1604
646.307	1608
646.788	1643
647.27	1618
647.751	1627
648.233	1631
648.714	1593
649.196	1637
649.677	1633
650.159	1643
650.64	1617
651.122	1637
651.603	1617
652.085	1639
652.567	1634
653.049	1622
653.53	1615
654.012	1642
654.494	1620
654.976	1639
655.458	1635
655.94	1638
656.422	1671
656.904	1641
657.386	1623
657.868	1627
658.35	1623
658.833	1637
659.315	1642
659.797	1625
660.279	1635
660.762	1653
661.244	1640
661.726	1621
662.209	1623
662.691	1626
663.174	1598
663.656	1604
664.139	1609
664.621	1601
665.104	1581
665.587	1599
666.069	1604
666.552	1602
667.035	1588
667.517	1594
668	1611
668.483	1612
668.966	1595
669.449	1591
669.932	1598
670.415	1608
670.898	1604
671.381	1607
671.864	1623
672.347	1613
672.83	1608
673.313	1609
673.797	1609
674.28	1649
674.763	1652
675.247	1671
675.73	1663
676.213	1682
676.697	1697
677.18	1690
677.664	1705
678.147	1698
678.631	1704
679.114	1711
679.598	1701
680.082	1720
680.565	1723
681.049	1710
681.533	1709
682.017	1732
682.5	1724
682.984	1737
683.468	1730
683.952	1692
684.436	1729
684.92	1725
685.404	1730
685.888	1749
686.372	1744
686.856	1760
687.341	1782
687.825	1772
688.309	1767
688.793	1758
689.278	1747
689.762	1766
690.246	1749
690.731	1759
691.215	1770
691.7	1722
692.184	1753
692.669	1758
693.153	1783
693.638	1754
694.122	1749
694.607	1753
695.092	1731
695.577	1759
696.061	1728
696.546	1718
697.031	1698
697.516	1707
698.001	1716
698.486	1705
698.971	1736
699.456	1696
699.941	1704
700.426	1700
700.911	1721
701.396	1706
701.881	1730
702.366	1732
702.852	1728
703.337	1737
703.822	1737
704.308	1742
704.793	1751
705.278	1754
705.764	1759
706.249	1755
706.735	1748
707.22	1770
707.706	1739
708.191	1772
708.677	1771
709.163	1759
709.648	1774
710.134	1798
710.62	1769
711.106	1772
711.592	1793
712.077	1788
712.563	1746
713.049	1737
713.535	1780
714.021	1771
714.507	1766
714.993	1755
715.479	1765
715.966	1747
716.452	1752
716.938	1743
717.424	1709
717.91	1747
718.397	1745
718.883	1729
719.369	1724
719.856	1711
720.342	1742
720.829	1732
721.315	1739
721.802	1743
722.288	1756
722.775	1684
723.262	1633
723.748	1710
724.235	1715
724.722	1750
725.208	1724
725.695	1721
726.182	1706
726.669	1675
727.156	1686
727.643	1670
728.13	1661
728.617	1642
729.104	1645
729.591	1628
730.078	1638
730.565	1645
731.052	1614
731.539	1622
732.027	1611
732.514	1604
733.001	1625
733.488	1620
733.976	1600
734.463	1590
734.951	1578
735.438	1611
735.926	1604
736.413	1622
736.901	1610
737.388	1638
737.876	1646
738.364	1638
738.851	1648
739.339	1630
739.827	1641
740.314	1595
740.802	1610
741.29	1634
741.778	1606
742.266	1622
742.754	1629
743.242	1638
743.73	1594
744.218	1585
744.706	1571
745.194	1587
745.682	1576
746.17	1581
746.659	1588
747.147	1550
747.635	1555
748.123	1557
748.612	1535
749.1	1541
749.589	1555
750.077	1538
750.566	1528
751.054	1528
751.543	1528
752.031	1515
752.52	1517
753.008	1488
753.497	1497
753.986	1485
754.474	1479
754.963	1495
755.452	1479
755.941	1476
756.43	1473
756.919	1469
757.408	1461
757.896	1470
758.385	1478
758.875	1464
759.364	1447
759.853	1441
760.342	1418
760.831	1443
761.32	1438
761.809	1401
762.299	1408
762.788	1417
763.277	1410
763.767	1388
764.256	1393
764.745	1374
765.235	1396
765.724	1356
766.214	1378
766.703	1366
767.193	1355
767.683	1362
768.172	1334
768.662	1348
769.152	1339
769.641	1345
770.131	1305
770.621	1330
771.111	1306
771.601	1305
772.09	1297
772.58	1286
773.07	1296
773.56	1313
774.05	1293
774.54	1297
775.031	1282
775.521	1279
776.011	1277
776.501	1285
776.991	1260
777.482	1271
777.972	1247
778.462	1237
778.953	1245
779.443	1231
779.933	1225
780.424	1213
780.914	1213
781.405	1222
781.895	1213
782.386	1209
782.877	1214
783.367	1187
783.858	1174
784.349	1174
784.839	1160
785.33	1174
785.821	1172
786.312	1164
786.803	1163
787.293	1167
787.784	1142
788.275	1131
788.766	1116
789.257	1142
789.748	1124
790.24	1125
790.731	1128
791.222	1114
791.713	1114
792.204	1119
792.696	1087
793.187	1102
793.678	1091
794.169	1064
794.661	1076
795.152	1062
795.644	1061
796.135	1059
796.627	1072
797.118	1055
797.61	1049
798.101	1031
798.593	1034
799.085	1024
799.576	1027
800.068	1010
800.56	1018
801.052	993
801.544	990
802.035	990
802.527	968
803.019	964
803.511	961
804.003	954
804.495	958
804.987	952
805.479	920
805.971	936
806.464	934
806.956	914
807.448	922
807.94	925
808.433	920
808.925	916
809.417	907
809.91	900
810.402	878
810.894	876
811.387	882
811.879	860
812.372	878
812.865	861
813.357	868
813.85	858
814.342	857
814.835	855
815.328	849
815.821	841
816.313	840
816.806	848
817.299	839
817.792	844
818.285	838
818.778	847
819.271	850
819.764	828
820.257	834
820.75	836
821.243	835
821.736	817
822.229	831
822.722	826
823.216	844
