Data from lamp5helium_zwak_Subt4__16__171.txt Node

Date: Wed Apr 09 10:14:01 CEST 2025
User: fys-lab-0081
Spectrometer: S04999
Trigger mode: 0
Resolution mode: 1024 pixels
Integration Time (sec): 1.000000E-1
Scans to average: 1
Nonlinearity correction enabled: false
Boxcar width: 0
Baseline correction enabled: true
XAxis mode: Wavelengths
Number of Pixels in Spectrum: 1024
>>>>>Begin Spectral Data<<<<<
336.42	2
336.877	-4
337.334	4
337.792	1
338.249	4
338.706	4
339.164	0
339.621	-3
340.079	0
340.536	4
340.994	9
341.452	-3
341.909	4
342.367	0
342.825	-2
343.283	-1
343.741	-3
344.198	2
344.656	1
345.114	-3
345.572	2
346.03	4
346.488	5
346.947	-3
347.405	4
347.863	-3
348.321	6
348.779	0
349.238	-2
349.696	1
350.154	1
350.613	1
351.071	1
351.53	2
351.988	1
352.447	1
352.905	2
353.364	-1
353.823	2
354.282	1
354.74	2
355.199	3
355.658	1
356.117	2
356.576	5
357.035	2
357.494	4
357.953	3
358.412	5
358.871	-7
359.33	4
359.789	3
360.249	-3
360.708	5
361.167	0
361.626	3
362.086	-1
362.545	2
363.005	7
363.464	-2
363.924	1
364.383	5
364.843	1
365.303	0
365.762	3
366.222	-1
366.682	-2
367.142	5
367.601	7
368.061	3
368.521	6
368.981	0
369.441	8
369.901	6
370.361	1
370.821	-2
371.282	1
371.742	4
372.202	7
372.662	7
373.123	4
373.583	2
374.043	3
374.504	-2
374.964	1
375.425	4
375.885	3
376.346	7
376.806	1
377.267	6
377.728	6
378.188	-1
378.649	6
379.11	3
379.571	6
380.032	1
380.493	3
380.954	8
381.414	2
381.876	4
382.337	7
382.798	5
383.259	12
383.72	6
384.181	5
384.642	4
385.104	9
385.565	17
386.026	7
386.488	2
386.949	11
387.411	9
387.872	6
388.334	10
388.795	6
389.257	13
389.719	13
390.181	7
390.642	8
391.104	4
391.566	10
392.028	15
392.49	6
392.952	9
393.414	12
393.876	11
394.338	9
394.8	10
395.262	14
395.724	9
396.186	14
396.648	13
397.111	15
397.573	16
398.035	14
398.498	15
398.96	10
399.423	13
399.885	17
400.348	13
400.81	19
401.273	11
401.736	17
402.198	12
402.661	14
403.124	12
403.587	14
404.049	16
404.512	18
404.975	16
405.438	14
405.901	14
406.364	22
406.827	19
407.29	17
407.754	18
408.217	16
408.68	18
409.143	12
409.607	21
410.07	19
410.533	19
410.997	18
411.46	15
411.924	18
412.387	14
412.851	18
413.314	22
413.778	21
414.242	20
414.705	24
415.169	20
415.633	23
416.097	26
416.561	24
417.024	26
417.488	28
417.952	26
418.416	31
418.88	24
419.344	26
419.809	24
420.273	26
420.737	24
421.201	18
421.665	28
422.13	29
422.594	27
423.059	31
423.523	29
423.987	29
424.452	30
424.916	31
425.381	29
425.846	31
426.31	32
426.775	31
427.24	35
427.704	27
428.169	31
428.634	35
429.099	29
429.564	36
430.029	37
430.494	35
430.959	32
431.424	33
431.889	32
432.354	34
432.819	35
433.284	38
433.75	38
434.215	40
434.68	42
435.146	42
435.611	46
436.077	45
436.542	44
437.008	45
437.473	47
437.939	53
438.404	50
438.87	50
439.336	48
439.801	51
440.267	50
440.733	54
441.199	54
441.665	49
442.131	57
442.596	56
443.062	49
443.529	59
443.995	55
444.461	52
444.927	67
445.393	63
445.859	67
446.325	68
446.792	75
447.258	71
447.724	75
448.191	74
448.657	75
449.124	80
449.59	75
450.057	88
450.523	85
450.99	84
451.457	82
451.923	84
452.39	82
452.857	88
453.324	87
453.791	91
454.257	89
454.724	90
455.191	91
455.658	89
456.125	93
456.592	92
457.059	98
457.527	97
457.994	103
458.461	95
458.928	105
459.396	101
459.863	107
460.33	103
460.798	105
461.265	108
461.732	110
462.2	106
462.668	115
463.135	112
463.603	107
464.07	108
464.538	115
465.006	116
465.474	112
465.941	112
466.409	108
466.877	112
467.345	119
467.813	115
468.281	113
468.749	112
469.217	119
469.685	120
470.153	117
470.621	120
471.09	122
471.558	125
472.026	126
472.494	124
472.963	133
473.431	138
473.9	142
474.368	144
474.837	145
475.305	148
475.774	155
476.242	161
476.711	155
477.18	156
477.648	159
478.117	160
478.586	166
479.055	156
479.524	160
479.993	160
480.462	163
480.93	166
481.399	165
481.869	162
482.338	164
482.807	172
483.276	168
483.745	171
484.214	171
484.684	175
485.153	172
485.622	170
486.092	181
486.561	181
487.031	179
487.5	186
487.97	193
488.439	194
488.909	204
489.378	208
489.848	209
490.318	219
490.787	218
491.257	232
491.727	230
492.197	238
492.667	235
493.137	232
493.607	232
494.077	243
494.547	239
495.017	244
495.487	247
495.957	250
496.427	244
496.897	243
497.368	252
497.838	249
498.308	254
498.779	256
499.249	259
499.719	258
500.19	267
500.66	263
501.131	268
501.602	268
502.072	270
502.543	278
503.014	289
503.484	284
503.955	297
504.426	311
504.897	310
505.368	315
505.838	321
506.309	332
506.78	337
507.251	344
507.722	351
508.194	365
508.665	364
509.136	365
509.607	384
510.078	386
510.549	389
511.021	399
511.492	400
511.964	403
512.435	415
512.906	415
513.378	419
513.849	424
514.321	424
514.793	425
515.264	441
515.736	439
516.208	449
516.679	452
517.151	450
517.623	458
518.095	466
518.567	475
519.038	489
519.51	487
519.982	496
520.454	500
520.927	509
521.399	516
521.871	529
522.343	530
522.815	531
523.287	528
523.76	536
524.232	545
524.704	552
525.177	540
525.649	543
526.122	551
526.594	540
527.067	561
527.539	571
528.012	563
528.484	563
528.957	567
529.43	567
529.903	562
530.375	580
530.848	571
531.321	579
531.794	578
532.267	590
532.74	582
533.213	588
533.686	598
534.159	592
534.632	606
535.105	614
535.578	622
536.051	626
536.525	631
536.998	634
537.471	647
537.945	641
538.418	658
538.891	657
539.365	664
539.838	669
540.312	673
540.786	683
541.259	678
541.733	677
542.206	684
542.68	675
543.154	674
543.628	678
544.101	697
544.575	697
545.049	675
545.523	690
545.997	692
546.471	706
546.945	695
547.419	714
547.893	685
548.367	692
548.842	691
549.316	697
549.79	702
550.264	698
550.739	708
551.213	701
551.687	701
552.162	713
552.636	712
553.111	710
553.585	734
554.06	719
554.534	729
555.009	726
555.484	747
555.958	755
556.433	753
556.908	763
557.383	762
557.858	781
558.333	788
558.807	786
559.282	780
559.757	815
560.232	818
560.708	807
561.183	794
561.658	808
562.133	812
562.608	806
563.083	825
563.559	812
564.034	816
564.509	809
564.985	823
565.46	812
565.936	828
566.411	834
566.887	828
567.362	826
567.838	828
568.313	837
568.789	830
569.265	828
569.74	839
570.216	831
570.692	847
571.168	847
571.644	838
572.12	844
572.596	859
573.071	862
573.547	883
574.024	886
574.5	902
574.976	912
575.452	924
575.928	928
576.404	928
576.881	965
577.357	947
577.833	951
578.31	979
578.786	999
579.262	1016
579.739	1011
580.215	1033
580.692	1017
581.169	1020
581.645	1020
582.122	1050
582.598	1048
583.075	1050
583.552	1062
584.029	1062
584.506	1058
584.982	1053
585.459	1078
585.936	1070
586.413	1079
586.89	1096
587.367	1089
587.844	1113
588.321	1110
588.799	1106
589.276	1090
589.753	1109
590.23	1121
590.707	1124
591.185	1111
591.662	1109
592.139	1127
592.617	1154
593.094	1149
593.572	1150
594.049	1168
594.527	1174
595.004	1186
595.482	1218
595.96	1204
596.437	1209
596.915	1239
597.393	1228
597.871	1258
598.349	1243
598.826	1264
599.304	1267
599.782	1298
600.26	1280
600.738	1309
601.216	1306
601.694	1328
602.173	1344
602.651	1341
603.129	1327
603.607	1345
604.085	1344
604.564	1347
605.042	1342
605.52	1337
605.999	1377
606.477	1354
606.956	1352
607.434	1359
607.913	1366
608.391	1376
608.87	1377
609.348	1361
609.827	1362
610.306	1364
610.785	1374
611.263	1386
611.742	1374
612.221	1357
612.7	1370
613.179	1383
613.658	1366
614.137	1392
614.616	1398
615.095	1360
615.574	1392
616.053	1413
616.532	1395
617.011	1404
617.491	1407
617.97	1428
618.449	1439
618.928	1454
619.408	1444
619.887	1454
620.367	1464
620.846	1488
621.326	1477
621.805	1518
622.285	1512
622.764	1525
623.244	1524
623.724	1533
624.203	1541
624.683	1510
625.163	1545
625.643	1547
626.123	1535
626.602	1564
627.082	1533
627.562	1537
628.042	1580
628.522	1566
629.002	1546
629.482	1559
629.963	1556
630.443	1551
630.923	1567
631.403	1575
631.883	1569
632.364	1578
632.844	1560
633.324	1573
633.805	1586
634.285	1565
634.766	1561
635.246	1561
635.727	1560
636.207	1572
636.688	1584
637.168	1583
637.649	1556
638.13	1541
638.611	1560
639.091	1571
639.572	1550
640.053	1545
640.534	1567
641.015	1560
641.496	1542
641.977	1571
642.458	1552
642.939	1557
643.42	1564
643.901	1578
644.382	1597
644.863	1586
645.345	1598
645.826	1608
646.307	1616
646.788	1643
647.27	1619
647.751	1624
648.233	1630
648.714	1594
649.196	1634
649.677	1638
650.159	1638
650.64	1613
651.122	1646
651.603	1618
652.085	1633
652.567	1638
653.049	1617
653.53	1620
654.012	1645
654.494	1621
654.976	1640
655.458	1638
655.94	1644
656.422	1670
656.904	1643
657.386	1628
657.868	1626
658.35	1631
658.833	1636
659.315	1644
659.797	1627
660.279	1640
660.762	1657
661.244	1642
661.726	1626
662.209	1628
662.691	1623
663.174	1601
663.656	1612
664.139	1612
664.621	1594
665.104	1582
665.587	1602
666.069	1604
666.552	1604
667.035	1591
667.517	1594
668	1610
668.483	1614
668.966	1600
669.449	1598
669.932	1597
670.415	1605
670.898	1599
671.381	1606
671.864	1628
672.347	1608
672.83	1606
673.313	1614
673.797	1615
674.28	1647
674.763	1649
675.247	1676
675.73	1668
676.213	1688
676.697	1696
677.18	1700
677.664	1708
678.147	1706
678.631	1708
679.114	1714
679.598	1711
680.082	1721
680.565	1725
681.049	1707
681.533	1714
682.017	1726
682.5	1720
682.984	1737
683.468	1732
683.952	1701
684.436	1737
684.92	1723
685.404	1727
685.888	1753
686.372	1748
686.856	1753
687.341	1783
687.825	1759
688.309	1773
688.793	1770
689.278	1747
689.762	1773
690.246	1757
690.731	1764
691.215	1779
691.7	1722
692.184	1748
692.669	1752
693.153	1782
693.638	1755
694.122	1747
694.607	1756
695.092	1730
695.577	1760
696.061	1726
696.546	1717
697.031	1695
697.516	1707
698.001	1716
698.486	1710
698.971	1736
699.456	1698
699.941	1702
700.426	1702
700.911	1722
701.396	1707
701.881	1728
702.366	1733
702.852	1735
703.337	1740
703.822	1736
704.308	1738
704.793	1751
705.278	1759
705.764	1770
706.249	1753
706.735	1748
707.22	1772
707.706	1739
708.191	1775
708.677	1776
709.163	1758
709.648	1774
710.134	1797
710.62	1771
711.106	1772
711.592	1790
712.077	1789
712.563	1751
713.049	1745
713.535	1782
714.021	1771
714.507	1768
714.993	1753
715.479	1770
715.966	1749
716.452	1755
716.938	1753
717.424	1716
717.91	1755
718.397	1748
718.883	1730
719.369	1724
719.856	1714
720.342	1751
720.829	1735
721.315	1751
721.802	1740
722.288	1757
722.775	1681
723.262	1637
723.748	1716
724.235	1720
724.722	1752
725.208	1722
725.695	1721
726.182	1704
726.669	1681
727.156	1688
727.643	1667
728.13	1660
728.617	1642
729.104	1644
729.591	1627
730.078	1636
730.565	1642
731.052	1616
731.539	1617
732.027	1618
732.514	1605
733.001	1627
733.488	1619
733.976	1600
734.463	1589
734.951	1586
735.438	1614
735.926	1603
736.413	1621
736.901	1610
737.388	1641
737.876	1643
738.364	1643
738.851	1649
739.339	1631
739.827	1643
740.314	1598
740.802	1618
741.29	1630
741.778	1610
742.266	1623
742.754	1624
743.242	1641
743.73	1593
744.218	1587
744.706	1570
745.194	1588
745.682	1580
746.17	1582
746.659	1590
747.147	1550
747.635	1566
748.123	1554
748.612	1539
749.1	1540
749.589	1565
750.077	1544
750.566	1532
751.054	1528
751.543	1540
752.031	1513
752.52	1518
753.008	1487
753.497	1501
753.986	1488
754.474	1479
754.963	1504
755.452	1483
755.941	1470
756.43	1474
756.919	1469
757.408	1455
757.896	1473
758.385	1480
758.875	1462
759.364	1443
759.853	1447
760.342	1424
760.831	1444
761.32	1432
761.809	1400
762.299	1409
762.788	1423
763.277	1407
763.767	1391
764.256	1396
764.745	1380
765.235	1393
765.724	1365
766.214	1376
766.703	1370
767.193	1355
767.683	1363
768.172	1333
768.662	1340
769.152	1341
769.641	1337
770.131	1306
770.621	1328
771.111	1309
771.601	1308
772.09	1298
772.58	1294
773.07	1307
773.56	1311
774.05	1292
774.54	1289
775.031	1287
775.521	1284
776.011	1274
776.501	1291
776.991	1262
777.482	1273
777.972	1242
778.462	1234
778.953	1249
779.443	1237
779.933	1232
780.424	1215
780.914	1217
781.405	1219
781.895	1207
782.386	1214
782.877	1215
783.367	1190
783.858	1173
784.349	1178
784.839	1168
785.33	1167
785.821	1171
786.312	1160
786.803	1163
787.293	1167
787.784	1148
788.275	1136
788.766	1120
789.257	1143
789.748	1124
790.24	1120
790.731	1134
791.222	1115
791.713	1116
792.204	1120
792.696	1092
793.187	1099
793.678	1094
794.169	1063
794.661	1083
795.152	1068
795.644	1058
796.135	1066
796.627	1074
797.118	1052
797.61	1042
798.101	1028
798.593	1033
799.085	1021
799.576	1025
800.068	1013
800.56	1016
801.052	987
801.544	990
802.035	991
802.527	966
803.019	963
803.511	959
804.003	952
804.495	961
804.987	949
805.479	920
805.971	939
806.464	937
806.956	918
807.448	919
807.94	924
808.433	921
808.925	917
809.417	906
809.91	896
810.402	875
810.894	879
811.387	882
811.879	864
812.372	879
812.865	860
813.357	865
813.85	861
814.342	855
814.835	857
815.328	852
815.821	840
816.313	851
816.806	851
817.299	843
817.792	846
818.285	837
818.778	849
819.271	848
819.764	832
820.257	838
820.75	837
821.243	828
821.736	821
822.229	823
822.722	826
823.216	849
