Data from lamp5helium_zwak_Subt4__22__177.txt Node

Date: Wed Apr 09 10:14:02 CEST 2025
User: fys-lab-0081
Spectrometer: S04999
Trigger mode: 0
Resolution mode: 1024 pixels
Integration Time (sec): 1.000000E-1
Scans to average: 1
Nonlinearity correction enabled: false
Boxcar width: 0
Baseline correction enabled: true
XAxis mode: Wavelengths
Number of Pixels in Spectrum: 1024
>>>>>Begin Spectral Data<<<<<
336.42	2
336.877	2
337.334	-2
337.792	-2
338.249	5
338.706	0
339.164	-1
339.621	-4
340.079	1
340.536	4
340.994	6
341.452	-4
341.909	0
342.367	-2
342.825	1
343.283	2
343.741	0
344.198	2
344.656	0
345.114	-2
345.572	0
346.03	3
346.488	4
346.947	-1
347.405	-2
347.863	0
348.321	7
348.779	-1
349.238	4
349.696	2
350.154	0
350.613	3
351.071	-1
351.53	3
351.988	2
352.447	3
352.905	2
353.364	-4
353.823	-1
354.282	2
354.74	1
355.199	2
355.658	6
356.117	0
356.576	2
357.035	0
357.494	0
357.953	4
358.412	6
358.871	-6
359.33	-2
359.789	3
360.249	-3
360.708	4
361.167	0
361.626	6
362.086	0
362.545	3
363.005	6
363.464	0
363.924	-2
364.383	4
364.843	1
365.303	4
365.762	3
366.222	-2
366.682	5
367.142	5
367.601	2
368.061	2
368.521	4
368.981	2
369.441	5
369.901	3
370.361	6
370.821	1
371.282	4
371.742	5
372.202	8
372.662	4
373.123	3
373.583	2
374.043	3
374.504	-3
374.964	-1
375.425	2
375.885	4
376.346	1
376.806	0
377.267	7
377.728	8
378.188	4
378.649	1
379.11	6
379.571	1
380.032	5
380.493	2
380.954	4
381.414	0
381.876	4
382.337	5
382.798	8
383.259	10
383.72	6
384.181	7
384.642	1
385.104	7
385.565	14
386.026	8
386.488	5
386.949	6
387.411	5
387.872	9
388.334	10
388.795	5
389.257	12
389.719	8
390.181	8
390.642	13
391.104	7
391.566	4
392.028	9
392.49	6
392.952	12
393.414	7
393.876	11
394.338	9
394.8	12
395.262	11
395.724	10
396.186	14
396.648	11
397.111	9
397.573	10
398.035	12
398.498	12
398.96	8
399.423	14
399.885	17
400.348	12
400.81	23
401.273	11
401.736	12
402.198	11
402.661	16
403.124	13
403.587	15
404.049	16.5
404.512	18
404.975	14
405.438	12
405.901	12
406.364	21
406.827	18
407.29	21
407.754	21
408.217	23
408.68	18
409.143	14
409.607	20
410.07	17
410.533	22
410.997	20
411.46	18
411.924	20
412.387	24
412.851	20
413.314	21
413.778	19
414.242	24
414.705	25
415.169	25
415.633	23
416.097	28
416.561	22
417.024	28
417.488	31
417.952	24
418.416	29
418.88	25
419.344	25
419.809	25
420.273	28
420.737	24
421.201	17
421.665	31
422.13	31
422.594	28
423.059	30
423.523	25
423.987	29
424.452	28
424.916	34
425.381	32
425.846	31
426.31	32
426.775	31
427.24	38
427.704	31
428.169	36
428.634	33
429.099	28
429.564	33
430.029	35
430.494	38
430.959	34
431.424	34
431.889	35
432.354	35
432.819	35
433.284	35
433.75	37
434.215	38
434.68	41
435.146	43
435.611	44
436.077	45
436.542	41
437.008	44
437.473	47
437.939	53
438.404	53
438.87	50
439.336	50
439.801	47
440.267	46
440.733	55
441.199	54
441.665	47
442.131	53
442.596	59
443.062	54
443.529	59
443.995	60
444.461	55
444.927	63
445.393	62
445.859	65
446.325	72
446.792	76
447.258	72
447.724	71
448.191	74
448.657	76
449.124	81
449.59	79
450.057	90
450.523	84
450.99	85
451.457	82
451.923	89
452.39	83
452.857	94
453.324	82
453.791	91
454.257	90
454.724	94
455.191	93
455.658	89
456.125	99
456.592	94
457.059	98
457.527	100
457.994	102
458.461	101
458.928	105
459.396	99
459.863	107
460.33	106
460.798	104
461.265	108
461.732	111
462.2	112
462.668	113
463.135	114
463.603	109
464.07	109
464.538	112
465.006	116
465.474	109
465.941	112
466.409	116
466.877	111
467.345	121
467.813	114
468.281	118
468.749	114
469.217	114
469.685	115
470.153	119
470.621	122
471.09	125
471.558	125
472.026	127
472.494	128
472.963	136
473.431	137
473.9	143
474.368	143
474.837	145
475.305	149
475.774	155
476.242	163
476.711	158
477.18	163
477.648	163
478.117	165
478.586	164
479.055	164
479.524	170
479.993	168
480.462	164
480.93	167
481.399	166
481.869	165
482.338	166
482.807	166
483.276	171
483.745	173
484.214	176
484.684	179
485.153	173
485.622	174
486.092	186
486.561	184
487.031	183
487.5	185
487.97	198
488.439	202
488.909	209
489.378	209
489.848	215
490.318	217
490.787	218
491.257	234
491.727	232
492.197	244
492.667	239
493.137	234
493.607	238
494.077	244
494.547	244
495.017	244
495.487	245
495.957	256
496.427	250
496.897	251
497.368	248
497.838	250
498.308	258
498.779	257
499.249	264
499.719	259
500.19	269
500.66	266
501.131	270
501.602	274
502.072	271
502.543	277
503.014	295
503.484	290
503.955	296
504.426	316
504.897	314
505.368	324
505.838	319
506.309	331
506.78	344
507.251	356
507.722	355
508.194	367
508.665	369
509.136	370
509.607	386
510.078	391
510.549	393
511.021	403
511.492	409
511.964	412
512.435	424
512.906	417
513.378	431
513.849	431
514.321	430
514.793	437
515.264	447
515.736	447
516.208	455
516.679	461
517.151	457
517.623	464
518.095	474
518.567	486
519.038	485
519.51	488
519.982	505
520.454	510
520.927	511
521.399	517
521.871	530
522.343	537
522.815	536
523.287	534
523.76	541
524.232	546
524.704	553
525.177	548
525.649	552
526.122	559
526.594	551
527.067	563
527.539	573
528.012	572
528.484	570
528.957	573
529.43	573
529.903	567
530.375	588
530.848	584
531.321	587
531.794	588
532.267	601
532.74	591
533.213	595
533.686	610
534.159	598
534.632	616
535.105	622
535.578	628
536.051	629
536.525	635
536.998	639
537.471	651
537.945	656
538.418	665
538.891	668
539.365	673
539.838	682
540.312	682
540.786	692
541.259	685
541.733	688
542.206	687
542.68	683
543.154	683
543.628	690
544.101	709
544.575	706
545.049	688
545.523	699
545.997	701
546.471	713
546.945	701
547.419	719
547.893	696
548.367	704
548.842	697
549.316	703
549.79	715
550.264	705
550.739	713
551.213	709
551.687	709
552.162	717
552.636	726
553.111	715
553.585	745
554.06	728
554.534	737
555.009	735
555.484	750
555.958	767
556.433	765
556.908	770
557.383	765
557.858	793
558.333	797
558.807	790
559.282	793
559.757	823
560.232	828
560.708	811
561.183	803
561.658	823
562.133	817
562.608	810
563.083	832
563.559	815
564.034	828
564.509	826
564.985	827
565.46	820
565.936	846
566.411	844
566.887	838
567.362	832
567.838	837
568.313	852
568.789	841
569.265	833
569.74	849
570.216	843
570.692	859
571.168	853
571.644	849
572.12	853
572.596	865
573.071	871
573.547	891
574.024	894
574.5	923
574.976	921
575.452	935
575.928	939
576.404	938
576.881	973
577.357	956
577.833	960
578.31	991
578.786	1005
579.262	1030
579.739	1025
580.215	1043
580.692	1028
581.169	1037
581.645	1030
582.122	1059
582.598	1062
583.075	1063
583.552	1074
584.029	1075
584.506	1076
584.982	1060
585.459	1085
585.936	1081
586.413	1093
586.89	1118
587.367	1104
587.844	1126
588.321	1115
588.799	1115
589.276	1108
589.753	1117
590.23	1131
590.707	1130
591.185	1126
591.662	1121
592.139	1144
592.617	1165
593.094	1164
593.572	1162
594.049	1182
594.527	1183
595.004	1200
595.482	1230
595.96	1216
596.437	1219
596.915	1257
597.393	1238
597.871	1274
598.349	1255
598.826	1273
599.304	1276
599.782	1305
600.26	1298
600.738	1320
601.216	1325
601.694	1337
602.173	1356
602.651	1355
603.129	1343
603.607	1358
604.085	1358
604.564	1361
605.042	1355
605.52	1357
605.999	1395
606.477	1364
606.956	1370
607.434	1376
607.913	1382
608.391	1386
608.87	1385
609.348	1372
609.827	1369
610.306	1382
610.785	1391
611.263	1402
611.742	1383
612.221	1374
612.7	1385
613.179	1397
613.658	1384
614.137	1401
614.616	1415
615.095	1377
615.574	1406
616.053	1420
616.532	1410
617.011	1416
617.491	1429
617.97	1437
618.449	1459
618.928	1471
619.408	1455
619.887	1475
620.367	1481
620.846	1503
621.326	1495
621.805	1536
622.285	1529
622.764	1539
623.244	1535
623.724	1545
624.203	1553
624.683	1522
625.163	1561
625.643	1563
626.123	1545
626.602	1582
627.082	1551
627.562	1558
628.042	1591
628.522	1574
629.002	1564
629.482	1578
629.963	1579
630.443	1562
630.923	1583
631.403	1587
631.883	1593
632.364	1596
632.844	1574
633.324	1589
633.805	1604
634.285	1583
634.766	1572
635.246	1575
635.727	1574
636.207	1587
636.688	1594
637.168	1599
637.649	1571
638.13	1570
638.611	1577
639.091	1584
639.572	1569
640.053	1556
640.534	1581
641.015	1576
641.496	1563
641.977	1584
642.458	1566
642.939	1575
643.42	1579
643.901	1596
644.382	1617
644.863	1601
645.345	1611
645.826	1621
646.307	1624
646.788	1661
647.27	1630
647.751	1638
648.233	1654
648.714	1612
649.196	1651
649.677	1646
650.159	1660
650.64	1633
651.122	1660
651.603	1638
652.085	1652
652.567	1656
653.049	1632
653.53	1639
654.012	1656
654.494	1630
654.976	1656
655.458	1660
655.94	1652
656.422	1684
656.904	1662
657.386	1639
657.868	1641
658.35	1641
658.833	1651
659.315	1663
659.797	1649
660.279	1655
660.762	1671
661.244	1657
661.726	1637
662.209	1642
662.691	1637
663.174	1611
663.656	1623
664.139	1628
664.621	1614
665.104	1596
665.587	1616
666.069	1619
666.552	1619
667.035	1604
667.517	1607
668	1629
668.483	1628
668.966	1617
669.449	1610
669.932	1613
670.415	1626
670.898	1615
671.381	1628
671.864	1634
672.347	1625
672.83	1622
673.313	1621
673.797	1633
674.28	1667
674.763	1664
675.247	1684
675.73	1679
676.213	1706
676.697	1715
677.18	1713
677.664	1726
678.147	1720
678.631	1719
679.114	1727
679.598	1719
680.082	1735
680.565	1732
681.049	1727
681.533	1730
682.017	1746
682.5	1734
682.984	1749
683.468	1753
683.952	1715
684.436	1750
684.92	1736
685.404	1751
685.888	1764
686.372	1762
686.856	1778
687.341	1799
687.825	1779
688.309	1787
688.793	1780
689.278	1764
689.762	1788
690.246	1770
690.731	1778
691.215	1785
691.7	1743
692.184	1763
692.669	1772
693.153	1795
693.638	1777
694.122	1762
694.607	1769
695.092	1750
695.577	1782
696.061	1738
696.546	1729
697.031	1710
697.516	1723
698.001	1739
698.486	1723
698.971	1753
699.456	1712
699.941	1720
700.426	1719
700.911	1739
701.396	1724
701.881	1744
702.366	1750
702.852	1745
703.337	1751
703.822	1760
704.308	1757
704.793	1772
705.278	1773
705.764	1786
706.249	1779
706.735	1767
707.22	1781
707.706	1755
708.191	1797
708.677	1792
709.163	1783
709.648	1789
710.134	1805
710.62	1786
711.106	1788
711.592	1808
712.077	1801
712.563	1766
713.049	1757
713.535	1796
714.021	1793
714.507	1788
714.993	1772
715.479	1784
715.966	1768
716.452	1767
716.938	1760
717.424	1723
717.91	1766
718.397	1760
718.883	1739
719.369	1742
719.856	1732
720.342	1758
720.829	1752
721.315	1761
721.802	1753
722.288	1768
722.775	1696
723.262	1653
723.748	1725
724.235	1726
724.722	1764
725.208	1739
725.695	1735
726.182	1718
726.669	1690
727.156	1699
727.643	1689
728.13	1674
728.617	1658
729.104	1656
729.591	1639
730.078	1655
730.565	1659
731.052	1632
731.539	1635
732.027	1624
732.514	1617
733.001	1638
733.488	1637
733.976	1613
734.463	1606
734.951	1597
735.438	1626
735.926	1614
736.413	1642
736.901	1626
737.388	1652
737.876	1663
738.364	1656
738.851	1664
739.339	1652
739.827	1659
740.314	1615
740.802	1634
741.29	1646
741.778	1629
742.266	1636
742.754	1641
743.242	1652
743.73	1609
744.218	1600
744.706	1578
745.194	1605
745.682	1595
746.17	1597
746.659	1607
747.147	1561
747.635	1574
748.123	1566
748.612	1547
749.1	1551
749.589	1572
750.077	1558
750.566	1545
751.054	1546
751.543	1548
752.031	1526
752.52	1529
753.008	1505
753.497	1512
753.986	1503
754.474	1492
754.963	1508
755.452	1492
755.941	1487
756.43	1488
756.919	1478
757.408	1474
757.896	1484
758.385	1492
758.875	1479
759.364	1458
759.853	1460
760.342	1434
760.831	1456
761.32	1448
761.809	1419
762.299	1421
762.788	1428
763.277	1415
763.767	1408
764.256	1411
764.745	1387
765.235	1416
765.724	1366
766.214	1389
766.703	1379
767.193	1362
767.683	1372
768.172	1341
768.662	1361
769.152	1347
769.641	1355
770.131	1319
770.621	1338
771.111	1323
771.601	1315
772.09	1305
772.58	1298
773.07	1308
773.56	1320
774.05	1307
774.54	1302
775.031	1295
775.521	1291
776.011	1289
776.501	1297
776.991	1273
777.482	1285
777.972	1254
778.462	1250
778.953	1262
779.443	1247
779.933	1238
780.424	1219
780.914	1226
781.405	1230
781.895	1224
782.386	1221
782.877	1222
783.367	1195
783.858	1183
784.349	1186
784.839	1171
785.33	1180
785.821	1181
786.312	1168
786.803	1177
787.293	1173
787.784	1154
788.275	1140
788.766	1134
789.257	1156
789.748	1136
790.24	1134
790.731	1138
791.222	1123
791.713	1125
792.204	1131
792.696	1100
793.187	1113
793.678	1104
794.169	1078
794.661	1080
795.152	1077
795.644	1068
796.135	1066
796.627	1087
797.118	1058
797.61	1055
798.101	1033
798.593	1040
799.085	1033
799.576	1033
800.068	1016
800.56	1027
801.052	998
801.544	992
802.035	995
802.527	978
803.019	977
803.511	968
804.003	960
804.495	967
804.987	957
805.479	930
805.971	941
806.464	943
806.956	926
807.448	924
807.94	930
808.433	925
808.925	926
809.417	906
809.91	908
810.402	877
810.894	885
811.387	887
811.879	870
812.372	880
812.865	866
813.357	871
813.85	863
814.342	862
814.835	862
815.328	856
815.821	846
816.313	852
816.806	855
817.299	846
817.792	857
818.285	848
818.778	857
819.271	858
819.764	841
820.257	843
820.75	846
821.243	836
821.736	822
822.229	834
822.722	832
823.216	854
