Data from lamp4helium_sterk_Subt2__98__198.txt Node

Date: Wed Apr 09 11:07:06 CEST 2025
User: fys-lab-0081
Spectrometer: S04999
Trigger mode: 0
Resolution mode: 1024 pixels
Integration Time (sec): 1.000000E-1
Scans to average: 1
Nonlinearity correction enabled: false
Boxcar width: 0
Baseline correction enabled: true
XAxis mode: Wavelengths
Number of Pixels in Spectrum: 1024
>>>>>Begin Spectral Data<<<<<
336.42	2
336.877	4
337.334	7
337.792	7
338.249	3
338.706	1
339.164	2
339.621	4
340.079	3
340.536	1
340.994	6
341.452	7
341.909	11
342.367	4
342.825	0
343.283	11
343.741	4
344.198	2
344.656	7
345.114	3
345.572	7
346.03	2
346.488	6
346.947	4
347.405	6
347.863	4
348.321	5
348.779	11
349.238	5
349.696	9
350.154	0
350.613	8
351.071	6
351.53	12
351.988	10
352.447	8
352.905	7
353.364	3
353.823	12
354.282	10
354.74	7
355.199	10
355.658	10
356.117	12
356.576	11
357.035	8
357.494	11
357.953	8
358.412	13
358.871	11
359.33	15
359.789	7
360.249	9
360.708	12
361.167	11
361.626	15
362.086	13
362.545	14
363.005	14
363.464	13
363.924	16
364.383	15
364.843	17
365.303	21
365.762	22
366.222	24
366.682	20
367.142	23
367.601	22
368.061	19
368.521	21
368.981	19
369.441	21
369.901	28
370.361	21
370.821	21
371.282	21
371.742	20
372.202	29
372.662	28
373.123	26
373.583	29
374.043	29
374.504	29
374.964	30
375.425	29
375.885	30
376.346	33
376.806	35
377.267	32
377.728	38
378.188	36
378.649	31
379.11	37
379.571	34
380.032	40
380.493	43
380.954	44
381.414	44
381.876	46
382.337	43
382.798	46
383.259	53
383.72	49
384.181	49
384.642	56
385.104	56
385.565	61
386.026	63
386.488	56
386.949	64
387.411	64
387.872	66
388.334	71
388.795	70
389.257	74
389.719	73
390.181	75
390.642	72
391.104	76
391.566	87
392.028	84
392.49	88
392.952	91
393.414	86
393.876	95
394.338	92
394.8	89
395.262	85
395.724	101
396.186	102
396.648	101
397.111	101
397.573	107
398.035	107
398.498	107
398.96	111
399.423	106
399.885	113
400.348	121
400.81	122
401.273	121
401.736	117
402.198	131
402.661	134
403.124	132
403.587	138
404.049	139.5
404.512	141
404.975	144
405.438	144
405.901	156
406.364	151
406.827	152
407.29	149
407.754	152
408.217	155
408.68	157
409.143	159
409.607	168
410.07	160
410.533	165
410.997	164
411.46	170
411.924	176
412.387	175
412.851	177
413.314	182
413.778	183
414.242	189
414.705	194
415.169	192
415.633	197
416.097	192
416.561	198
417.024	202
417.488	197
417.952	201
418.416	196
418.88	199
419.344	195
419.809	205
420.273	209
420.737	207
421.201	214
421.665	222
422.13	222
422.594	230
423.059	232
423.523	238
423.987	237
424.452	245
424.916	250
425.381	258
425.846	257
426.31	269
426.775	265
427.24	272
427.704	267
428.169	271
428.634	273
429.099	271
429.564	275
430.029	276
430.494	270
430.959	277
431.424	273
431.889	289
432.354	291
432.819	285
433.284	304
433.75	302
434.215	319
434.68	316
435.146	317
435.611	328
436.077	348
436.542	348
437.008	363
437.473	364
437.939	365
438.404	376
438.87	381
439.336	375
439.801	373
440.267	386
440.733	389
441.199	390
441.665	396
442.131	407
442.596	401
443.062	415
443.529	432
443.995	438
444.461	445
444.927	463
445.393	467
445.859	484
446.325	494
446.792	525
447.258	521
447.724	537
448.191	557
448.657	563
449.124	577
449.59	571
450.057	604
450.523	609
450.99	621
451.457	614
451.923	630
452.39	624
452.857	641
453.324	633
453.791	645
454.257	646
454.724	659
455.191	657
455.658	662
456.125	681
456.592	670
457.059	681
457.527	692
457.994	715
458.461	717
458.928	734
459.396	726
459.863	751
460.33	744
460.798	750
461.265	759
461.732	756
462.2	778
462.668	772
463.135	783
463.603	761
464.07	786
464.538	761
465.006	780
465.474	778
465.941	777
466.409	782
466.877	768
467.345	789
467.813	776
468.281	795
468.749	804
469.217	796
469.685	819
470.153	832
470.621	827
471.09	828
471.558	871
472.026	868
472.494	895
472.963	905
473.431	932
473.9	947
474.368	969
474.837	987
475.305	999
475.774	1017
476.242	1040
476.711	1044
477.18	1070
477.648	1061
478.117	1073
478.586	1068
479.055	1079
479.524	1091
479.993	1089
480.462	1079
480.93	1078
481.399	1083
481.869	1093
482.338	1079
482.807	1107
483.276	1094
483.745	1097
484.214	1131
484.684	1152
485.153	1161
485.622	1160
486.092	1202
486.561	1180
487.031	1222
487.5	1242
487.97	1252
488.439	1288
488.909	1312
489.378	1361
489.848	1370
490.318	1393
490.787	1457
491.257	1470
491.727	1481
492.197	1508
492.667	1497
493.137	1525
493.607	1520
494.077	1554
494.547	1533
495.017	1513
495.487	1546
495.957	1587
496.427	1548
496.897	1553
497.368	1578
497.838	1563
498.308	1592
498.779	1611
499.249	1614
499.719	1631
500.19	1649
500.66	1657
501.131	1668
501.602	1696
502.072	1699
502.543	1728
503.014	1784
503.484	1769
503.955	1823
504.426	1891
504.897	1904
505.368	1942
505.838	1987
506.309	2031
506.78	2099
507.251	2132
507.722	2177
508.194	2227
508.665	2258
509.136	2255
509.607	2326
510.078	2340
510.549	2357
511.021	2421
511.492	2423
511.964	2454
512.435	2487
512.906	2464
513.378	2486
513.849	2539
514.321	2552
514.793	2583
515.264	2609
515.736	2638
516.208	2686
516.679	2705
517.151	2721
517.623	2750
518.095	2794
518.567	2818
519.038	2869
519.51	2867
519.982	2899
520.454	2931
520.927	2986
521.399	3020
521.871	3059
522.343	3064
522.815	3089
523.287	3086
523.76	3100
524.232	3154
524.704	3173
525.177	3123
525.649	3145
526.122	3182
526.594	3116
527.067	3188
527.539	3221
528.012	3210
528.484	3208
528.957	3217
529.43	3216
529.903	3201
530.375	3312
530.848	3250
531.321	3292
531.794	3303
532.267	3378
532.74	3322
533.213	3317
533.686	3372
534.159	3362
534.632	3432
535.105	3435
535.578	3504
536.051	3509
536.525	3522
536.998	3526
537.471	3603
537.945	3559
538.418	3614
538.891	3630
539.365	3686
539.838	3701
540.312	3680
540.786	3708
541.259	3724
541.733	3781
542.206	3785
542.68	3722
543.154	3733
543.628	3751
544.101	3811
544.575	3753
545.049	3668
545.523	3741
545.997	3723
546.471	3752
546.945	3727
547.419	3787
547.893	3661
548.367	3734
548.842	3692
549.316	3706
549.79	3742
550.264	3719
550.739	3761
551.213	3770
551.687	3771
552.162	3799
552.636	3761
553.111	3768
553.585	3873
554.06	3814
554.534	3889
555.009	3869
555.484	3937
555.958	3976
556.433	3980
556.908	4038
557.383	3997
557.858	4088
558.333	4098
558.807	4077
559.282	4121
559.757	4230
560.232	4224
560.708	4146
561.183	4125
561.658	4203
562.133	4190
562.608	4162
563.083	4267
563.559	4184
564.034	4178
564.509	4185
564.985	4192
565.46	4149
565.936	4246
566.411	4230
566.887	4166
567.362	4194
567.838	4212
568.313	4257
568.789	4178
569.265	4188
569.74	4223
570.216	4169
570.692	4229
571.168	4236
571.644	4245
572.12	4250
572.596	4268
573.071	4289
573.547	4427
574.024	4484
574.5	4504
574.976	4517
575.452	4593
575.928	4645
576.404	4664
576.881	4791
577.357	4717
577.833	4751
578.31	4871
578.786	4916
579.262	4976
579.739	4918
580.215	5079
580.692	5101
581.169	5035
581.645	5028
582.122	5178
582.598	5173
583.075	5158
583.552	5163
584.029	5146
584.506	5151
584.982	5110
585.459	5216
585.936	5133
586.413	5200
586.89	5295
587.367	5254
587.844	5344
588.321	5291
588.799	5318
589.276	5260
589.753	5338
590.23	5374
590.707	5375
591.185	5384
591.662	5394
592.139	5455
592.617	5530
593.094	5499
593.572	5529
594.049	5580
594.527	5619
595.004	5636
595.482	5799
595.96	5769
596.437	5721
596.915	5860
597.393	5771
597.871	5926
598.349	5859
598.826	5977
599.304	5979
599.782	6102
600.26	6068
600.738	6195
601.216	6160
601.694	6200
602.173	6225
602.651	6267
603.129	6206
603.607	6262
604.085	6273
604.564	6286
605.042	6328
605.52	6280
605.999	6400
606.477	6230
606.956	6263
607.434	6337
607.913	6411
608.391	6383
608.87	6324
609.348	6241
609.827	6278
610.306	6327
610.785	6319
611.263	6321
611.742	6286
612.221	6200
612.7	6292
613.179	6318
613.658	6237
614.137	6332
614.616	6406
615.095	6314
615.574	6382
616.053	6414
616.532	6360
617.011	6379
617.491	6421
617.97	6392
618.449	6467
618.928	6526
619.408	6470
619.887	6519
620.367	6561
620.846	6621
621.326	6572
621.805	6710
622.285	6722
622.764	6787
623.244	6803
623.724	6826
624.203	6858
624.683	6742
625.163	6873
625.643	6864
626.123	6795
626.602	6956
627.082	6823
627.562	6800
628.042	6925
628.522	6864
629.002	6832
629.482	6859
629.963	6857
630.443	6786
630.923	6789
631.403	6843
631.883	6818
632.364	6866
632.844	6826
633.324	6833
633.805	6821
634.285	6732
634.766	6682
635.246	6710
635.727	6743
636.207	6751
636.688	6709
637.168	6681
637.649	6669
638.13	6674
638.611	6734
639.091	6715
639.572	6649
640.053	6613
640.534	6646
641.015	6642
641.496	6545
641.977	6676
642.458	6596
642.939	6620
643.42	6627
643.901	6636
644.382	6723
644.863	6696
645.345	6683
645.826	6687
646.307	6680
646.788	6794
647.27	6697
647.751	6693
648.233	6752
648.714	6598
649.196	6754
649.677	6710
650.159	6737
650.64	6661
651.122	6775
651.603	6676
652.085	6739
652.567	6796
653.049	6749
653.53	6738
654.012	6838
654.494	6736
654.976	6817
655.458	6774
655.94	6752
656.422	6839
656.904	6699
657.386	6614
657.868	6607
658.35	6570
658.833	6625
659.315	6643
659.797	6536
660.279	6530
660.762	6556
661.244	6478
661.726	6438
662.209	6461
662.691	6449
663.174	6332
663.656	6369
664.139	6396
664.621	6346
665.104	6304
665.587	6377
666.069	6409
666.552	6400
667.035	6312
667.517	6344
668	6414
668.483	6413
668.966	6343
669.449	6318
669.932	6311
670.415	6370
670.898	6339
671.381	6349
671.864	6360
672.347	6258
672.83	6263
673.313	6262
673.797	6259
674.28	6374
674.763	6375
675.247	6375
675.73	6314
676.213	6354
676.697	6420
677.18	6436
677.664	6456
678.147	6427
678.631	6492
679.114	6551
679.598	6558
680.082	6605
680.565	6608
681.049	6564
681.533	6543
682.017	6574
682.5	6567
682.984	6576
683.468	6570
683.952	6470
684.436	6605
684.92	6539
685.404	6588
685.888	6609
686.372	6522
686.856	6545
687.341	6599
687.825	6498
688.309	6534
688.793	6545
689.278	6483
689.762	6531
690.246	6488
690.731	6483
691.215	6499
691.7	6344
692.184	6430
692.669	6406
693.153	6413
693.638	6300
694.122	6312
694.607	6388
695.092	6309
695.577	6357
696.061	6259
696.546	6279
697.031	6245
697.516	6309
698.001	6314
698.486	6280
698.971	6368
699.456	6193
699.941	6169
700.426	6159
700.911	6238
701.396	6211
701.881	6249
702.366	6196
702.852	6179
703.337	6174
703.822	6146
704.308	6144
704.793	6169
705.278	6169
705.764	6197
706.249	6157
706.735	6145
707.22	6195
707.706	6113
708.191	6203
708.677	6198
709.163	6125
709.648	6152
710.134	6277
710.62	6232
711.106	6238
711.592	6289
712.077	6222
712.563	6054
713.049	6037
713.535	6181
714.021	6170
714.507	6159
714.993	6064
715.479	6100
715.966	6023
716.452	6043
716.938	6066
717.424	5863
717.91	5988
718.397	5916
718.883	5893
719.369	5912
719.856	5838
720.342	5914
720.829	5837
721.315	5846
721.802	5793
722.288	5821
722.775	5601
723.262	5449
723.748	5675
724.235	5668
724.722	5746
725.208	5627
725.695	5613
726.182	5600
726.669	5548
727.156	5628
727.643	5580
728.13	5544
728.617	5470
729.104	5481
729.591	5441
730.078	5480
730.565	5471
731.052	5392
731.539	5402
732.027	5367
732.514	5292
733.001	5325
733.488	5299
733.976	5287
734.463	5271
734.951	5267
735.438	5297
735.926	5236
736.413	5275
736.901	5237
737.388	5272
737.876	5247
738.364	5226
738.851	5259
739.339	5252
739.827	5309
740.314	5129
740.802	5146
741.29	5166
741.778	5096
742.266	5108
742.754	5137
743.242	5170
743.73	5096
744.218	5083
744.706	5036
745.194	5090
745.682	5089
746.17	5094
746.659	5094
747.147	4957
747.635	4970
748.123	4943
748.612	4879
749.1	4816
749.589	4842
750.077	4827
750.566	4809
751.054	4841
751.543	4875
752.031	4748
752.52	4713
753.008	4624
753.497	4633
753.986	4636
754.474	4654
754.963	4685
755.452	4577
755.941	4541
756.43	4525
756.919	4506
757.408	4470
757.896	4499
758.385	4527
758.875	4471
759.364	4429
759.853	4394
760.342	4305
760.831	4407
761.32	4355
761.809	4299
762.299	4319
762.788	4332
763.277	4333
763.767	4286
764.256	4293
764.745	4245
765.235	4296
765.724	4173
766.214	4239
766.703	4193
767.193	4127
767.683	4111
768.172	4029
768.662	4052
769.152	4034
769.641	4037
770.131	3919
770.621	3977
771.111	3929
771.601	3897
772.09	3857
772.58	3812
773.07	3823
773.56	3833
774.05	3750
774.54	3721
775.031	3690
775.521	3682
776.011	3688
776.501	3727
776.991	3645
777.482	3664
777.972	3583
778.462	3579
778.953	3594
779.443	3577
779.933	3575
780.424	3548
780.914	3589
781.405	3590
781.895	3573
782.386	3579
782.877	3552
783.367	3485
783.858	3452
784.349	3460
784.839	3420
785.33	3436
785.821	3433
786.312	3415
786.803	3427
787.293	3430
787.784	3376
788.275	3328
788.766	3311
789.257	3353
789.748	3278
790.24	3241
790.731	3234
791.222	3186
791.713	3176
792.204	3183
792.696	3091
793.187	3116
793.678	3086
794.169	2982
794.661	3019
795.152	2966
795.644	2948
796.135	2950
796.627	2955
797.118	2897
797.61	2871
798.101	2837
798.593	2868
799.085	2821
799.576	2833
800.068	2814
800.56	2837
801.052	2767
801.544	2766
802.035	2766
802.527	2724
803.019	2690
803.511	2672
804.003	2651
804.495	2666
804.987	2649
805.479	2600
805.971	2604
806.464	2620
806.956	2549
807.448	2531
807.94	2536
808.433	2520
808.925	2496
809.417	2487
809.91	2482
810.402	2410
810.894	2429
811.387	2459
811.879	2422
812.372	2437
812.865	2387
813.357	2380
813.85	2365
814.342	2338
814.835	2346
815.328	2338
815.821	2297
816.313	2293
816.806	2290
817.299	2266
817.792	2279
818.285	2244
818.778	2270
819.271	2261
819.764	2229
820.257	2239
820.75	2229
821.243	2242
821.736	2204
822.229	2230
822.722	2214
823.216	2251
