Data from lamp4helium_sterk_Subt4__11__135.txt Node

Date: Wed Apr 09 09:56:39 CEST 2025
User: fys-lab-0081
Spectrometer: S04999
Trigger mode: 0
Resolution mode: 1024 pixels
Integration Time (sec): 1.000000E-1
Scans to average: 1
Nonlinearity correction enabled: false
Boxcar width: 0
Baseline correction enabled: true
XAxis mode: Wavelengths
Number of Pixels in Spectrum: 1024
>>>>>Begin Spectral Data<<<<<
336.42	2
336.877	-1
337.334	-3
337.792	-4
338.249	5
338.706	2
339.164	-2
339.621	-3
340.079	4
340.536	6
340.994	6
341.452	-5
341.909	0
342.367	-3
342.825	1
343.283	0
343.741	-3
344.198	1
344.656	0
345.114	1
345.572	0
346.03	-1
346.488	1
346.947	-3
347.405	5
347.863	0
348.321	3
348.779	-1
349.238	1
349.696	-1
350.154	1
350.613	0
351.071	-2
351.53	8
351.988	2
352.447	0
352.905	-1
353.364	-1
353.823	4
354.282	-2
354.74	-2
355.199	3
355.658	3
356.117	-2
356.576	2
357.035	-1
357.494	2
357.953	2
358.412	4
358.871	-7
359.33	-1
359.789	4
360.249	-3
360.708	3
361.167	-3
361.626	0
362.086	-2
362.545	2
363.005	4
363.464	-5
363.924	-2
364.383	3
364.843	-3
365.303	-4
365.762	1
366.222	-6
366.682	2
367.142	0
367.601	1
368.061	0
368.521	6
368.981	-2
369.441	-2
369.901	7
370.361	2
370.821	-2
371.282	1
371.742	-1
372.202	3
372.662	4
373.123	-2
373.583	-3
374.043	1
374.504	-2
374.964	-3
375.425	-7
375.885	0
376.346	0
376.806	-2
377.267	6
377.728	1
378.188	2
378.649	-2
379.11	-2
379.571	-1
380.032	-1
380.493	-1
380.954	5
381.414	-6
381.876	0
382.337	4
382.798	1
383.259	5
383.72	-2
384.181	-2
384.642	-2
385.104	2
385.565	8
386.026	-1
386.488	-1
386.949	0
387.411	0
387.872	-2
388.334	3
388.795	-2
389.257	5
389.719	1
390.181	-2
390.642	3
391.104	2
391.566	-3
392.028	7
392.49	-2
392.952	3
393.414	4
393.876	1
394.338	-3
394.8	2
395.262	-3
395.724	1
396.186	1
396.648	4
397.111	5
397.573	4
398.035	1
398.498	1
398.96	-3
399.423	1
399.885	8
400.348	2
400.81	12
401.273	-4
401.736	-1
402.198	-2
402.661	-2
403.124	0
403.587	3
404.049	3
404.512	3
404.975	5
405.438	2
405.901	-1
406.364	-1
406.827	0
407.29	1
407.754	2
408.217	3
408.68	-1
409.143	-2
409.607	6
410.07	1
410.533	1
410.997	-2
411.46	-3
411.924	4
412.387	2
412.851	-3
413.314	2
413.778	-1
414.242	-2
414.705	1
415.169	0
415.633	1
416.097	0
416.561	0
417.024	2
417.488	10
417.952	4
418.416	8
418.88	0
419.344	3
419.809	5
420.273	3
420.737	-1
421.201	-4
421.665	-1
422.13	8
422.594	4
423.059	5
423.523	-4
423.987	1
424.452	3
424.916	1
425.381	-1
425.846	-2
426.31	2
426.775	-1
427.24	2
427.704	-1
428.169	1
428.634	4
429.099	0
429.564	-2
430.029	4
430.494	5
430.959	2
431.424	0
431.889	1
432.354	-1
432.819	3
433.284	-3
433.75	-2
434.215	2
434.68	3
435.146	6
435.611	16
436.077	21
436.542	13
437.008	7
437.473	-1
437.939	6
438.404	6
438.87	3
439.336	-2
439.801	4
440.267	1
440.733	8
441.199	9
441.665	-2
442.131	3
442.596	3
443.062	-3
443.529	2
443.995	5
444.461	-1
444.927	6
445.393	1
445.859	2
446.325	3
446.792	11
447.258	5
447.724	5
448.191	2
448.657	-1
449.124	6
449.59	2
450.057	5
450.523	3
450.99	4
451.457	6
451.923	0
452.39	2
452.857	3
453.324	-2
453.791	4
454.257	3
454.724	6
455.191	4
455.658	-1
456.125	0
456.592	7
457.059	2
457.527	3
457.994	7
458.461	8
458.928	7
459.396	4
459.863	6
460.33	4
460.798	3
461.265	1
461.732	3
462.2	3
462.668	9
463.135	9
463.603	6
464.07	0
464.538	10
465.006	9
465.474	4
465.941	1
466.409	4
466.877	4
467.345	6
467.813	8
468.281	5
468.749	1
469.217	2
469.685	6
470.153	0
470.621	5
471.09	6
471.558	2
472.026	4
472.494	3
472.963	7
473.431	3
473.9	10
474.368	7
474.837	5
475.305	5
475.774	11
476.242	11
476.711	9
477.18	9
477.648	8
478.117	11
478.586	9
479.055	2
479.524	7
479.993	8
480.462	2
480.93	7
481.399	5
481.869	2
482.338	7
482.807	5
483.276	6
483.745	13
484.214	6
484.684	7
485.153	6
485.622	8
486.092	8
486.561	8
487.031	4
487.5	8
487.97	11
488.439	12
488.909	11
489.378	11
489.848	9
490.318	14
490.787	11
491.257	14
491.727	6
492.197	16
492.667	10
493.137	9
493.607	8
494.077	14
494.547	5
495.017	9
495.487	8
495.957	11
496.427	11
496.897	13
497.368	10
497.838	10
498.308	8
498.779	8
499.249	13
499.719	9
500.19	13
500.66	12
501.131	11
501.602	8
502.072	7
502.543	8
503.014	6
503.484	9
503.955	12
504.426	13
504.897	13
505.368	14
505.838	6
506.309	9
506.78	14
507.251	15
507.722	9
508.194	10
508.665	17
509.136	13
509.607	11
510.078	12
510.549	11
511.021	13
511.492	10
511.964	12
512.435	12
512.906	8
513.378	17
513.849	17
514.321	16
514.793	12
515.264	12
515.736	11
516.208	10
516.679	13
517.151	13
517.623	10
518.095	13
518.567	16
519.038	14
519.51	18
519.982	18
520.454	16
520.927	17
521.399	16
521.871	18
522.343	20
522.815	19
523.287	15
523.76	20
524.232	20
524.704	17
525.177	13
525.649	13
526.122	12
526.594	19
527.067	14
527.539	20
528.012	17
528.484	19
528.957	22
529.43	15
529.903	13
530.375	12
530.848	15
531.321	15
531.794	15
532.267	17
532.74	17
533.213	20
533.686	20
534.159	10
534.632	15
535.105	22
535.578	14
536.051	17
536.525	18
536.998	20
537.471	21
537.945	22
538.418	17
538.891	24
539.365	25
539.838	27
540.312	28
540.786	36
541.259	41
541.733	41
542.206	45
542.68	39
543.154	35
543.628	36
544.101	39
544.575	39
545.049	38
545.523	43
545.997	61
546.471	59
546.945	47
547.419	41
547.893	36
548.367	28
548.842	32
549.316	25
549.79	26
550.264	22
550.739	25
551.213	26
551.687	23
552.162	21
552.636	22
553.111	19
553.585	26
554.06	21
554.534	22
555.009	19
555.484	24
555.958	23
556.433	16
556.908	18
557.383	15
557.858	19
558.333	22
558.807	18
559.282	16
559.757	23
560.232	22
560.708	20
561.183	19
561.658	17
562.133	20
562.608	14
563.083	22
563.559	18
564.034	24
564.509	12
564.985	19
565.46	19
565.936	20
566.411	16
566.887	20
567.362	17
567.838	23
568.313	17
568.789	19
569.265	17
569.74	23
570.216	20
570.692	21
571.168	17
571.644	21
572.12	24
572.596	22
573.071	20
573.547	19
574.024	20
574.5	23
574.976	21
575.452	21
575.928	22
576.404	23
576.881	22
577.357	26
577.833	26
578.31	25
578.786	25
579.262	31
579.739	31
580.215	31
580.692	25
581.169	27
581.645	27
582.122	24
582.598	28
583.075	28
583.552	29
584.029	29
584.506	26
584.982	25
585.459	21
585.936	28
586.413	30
586.89	33
587.367	30
587.844	34
588.321	34
588.799	28
589.276	27
589.753	24
590.23	24
590.707	27
591.185	30
591.662	28
592.139	24
592.617	28
593.094	30
593.572	28
594.049	32
594.527	25
595.004	24
595.482	29
595.96	25
596.437	28
596.915	30
597.393	23
597.871	30
598.349	30
598.826	30
599.304	26
599.782	32
600.26	30
600.738	34
601.216	28
601.694	27
602.173	34
602.651	31
603.129	27
603.607	33
604.085	29
604.564	28
605.042	26
605.52	32
605.999	32
606.477	26
606.956	32
607.434	31.5
607.913	31
608.391	29
608.87	34
609.348	37
609.827	45
610.306	58
610.785	82
611.263	98
611.742	95
612.221	84
612.7	65
613.179	57
613.658	50
614.137	50
614.616	47
615.095	41
615.574	46
616.053	44
616.532	34
617.011	41
617.491	37
617.97	34
618.449	36
618.928	35
619.408	29
619.887	34
620.367	35
620.846	33
621.326	30
621.805	39
622.285	33
622.764	37
623.244	34
623.724	33
624.203	30
624.683	37
625.163	31
625.643	33
626.123	33
626.602	37
627.082	34
627.562	31
628.042	37
628.522	34
629.002	35
629.482	33
629.963	30
630.443	39
630.923	45
631.403	34
631.883	33
632.364	34
632.844	30
633.324	31
633.805	31
634.285	29
634.766	27
635.246	29
635.727	26
636.207	25
636.688	29
637.168	33
637.649	31
638.13	30
638.611	25
639.091	32
639.572	29
640.053	26
640.534	28
641.015	30
641.496	25
641.977	31
642.458	27
642.939	29
643.42	27
643.901	28
644.382	27
644.863	24
645.345	31
645.826	27
646.307	27
646.788	32
647.27	30
647.751	26
648.233	30
648.714	36
649.196	27
649.677	29
650.159	27
650.64	32
651.122	30
651.603	33
652.085	31
652.567	30
653.049	29
653.53	33
654.012	30
654.494	33
654.976	30
655.458	28
655.94	29
656.422	25
656.904	29
657.386	31
657.868	29
658.35	30
658.833	27
659.315	27
659.797	28
660.279	30
660.762	25
661.244	28
661.726	26
662.209	25
662.691	24
663.174	27
663.656	29
664.139	28
664.621	28
665.104	28
665.587	29
666.069	26
666.552	22
667.035	21
667.517	31
668	27
668.483	31
668.966	29
669.449	23
669.932	25
670.415	26
670.898	25
671.381	25
671.864	22
672.347	26
672.83	27
673.313	25
673.797	28
674.28	27
674.763	24
675.247	32
675.73	30
676.213	23
676.697	27
677.18	27
677.664	26
678.147	32
678.631	27
679.114	28
679.598	26
680.082	29
680.565	27
681.049	28
681.533	33
682.017	29
682.5	28
682.984	28
683.468	30
683.952	25
684.436	28
684.92	28
685.404	27
685.888	29
686.372	27
686.856	32
687.341	27
687.825	27
688.309	25
688.793	27
689.278	24
689.762	30
690.246	33
690.731	26
691.215	28
691.7	28
692.184	28
692.669	26
693.153	25
693.638	28
694.122	30
694.607	25
695.092	27
695.577	30
696.061	24
696.546	27
697.031	26
697.516	19
698.001	20
698.486	22
698.971	31
699.456	22
699.941	26
700.426	21
700.911	30
701.396	27
701.881	26
702.366	26
702.852	25
703.337	26
703.822	30
704.308	29
704.793	25
705.278	23
705.764	31
706.249	28
706.735	25
707.22	28
707.706	34
708.191	27
708.677	23
709.163	25
709.648	31
710.134	29
710.62	26
711.106	31
711.592	25
712.077	27
712.563	33
713.049	22
713.535	30
714.021	28
714.507	28
714.993	27
715.479	23
715.966	22
716.452	26
716.938	20
717.424	27
717.91	25
718.397	27
718.883	20
719.369	29
719.856	28
720.342	27
720.829	31
721.315	30
721.802	28
722.288	24
722.775	24
723.262	22
723.748	22
724.235	23
724.722	24
725.208	24
725.695	24
726.182	22
726.669	20
727.156	19
727.643	23
728.13	20
728.617	28
729.104	24
729.591	28
730.078	20
730.565	21
731.052	17
731.539	17
732.027	22
732.514	20
733.001	19
733.488	25
733.976	18
734.463	22
734.951	16
735.438	20
735.926	20
736.413	30
736.901	22
737.388	22
737.876	20
738.364	23
738.851	23
739.339	24
739.827	22
740.314	22
740.802	24
741.29	22
741.778	17
742.266	21
742.754	23
743.242	27
743.73	19
744.218	21
744.706	20
745.194	24
745.682	24
746.17	20
746.659	19
747.147	18
747.635	20
748.123	22
748.612	18
749.1	21
749.589	26
750.077	18
750.566	15
751.054	20
751.543	21
752.031	23
752.52	23
753.008	18
753.497	21
753.986	21
754.474	16
754.963	23
755.452	17
755.941	19
756.43	16
756.919	19
757.408	21
757.896	17
758.385	18
758.875	23
759.364	18
759.853	20
760.342	22
760.831	15
761.32	21
761.809	16
762.299	19
762.788	22
763.277	15
763.767	19
764.256	18
764.745	12
765.235	19
765.724	15
766.214	18
766.703	16
767.193	19
767.683	20
768.172	15
768.662	17
769.152	19
769.641	14
770.131	16
770.621	19
771.111	13
771.601	14
772.09	14
772.58	20
773.07	15
773.56	14
774.05	18
774.54	14
775.031	17
775.521	18
776.011	11
776.501	18
776.991	12
777.482	14
777.972	16
778.462	14
778.953	16
779.443	15
779.933	12
780.424	13
780.914	15
781.405	16
781.895	13
782.386	15
782.877	17
783.367	14
783.858	14
784.349	14
784.839	11
785.33	7
785.821	15
786.312	13
786.803	14
787.293	15
787.784	12
788.275	12
788.766	9
789.257	13
789.748	13
790.24	7
790.731	11
791.222	13
791.713	12
792.204	12
792.696	17
793.187	12
793.678	13
794.169	10
794.661	13
795.152	11
795.644	11
796.135	8
796.627	13
797.118	16
797.61	13
798.101	13
798.593	8
799.085	15
799.576	15
800.068	14
800.56	9
801.052	13
801.544	16
802.035	11
802.527	8
803.019	12
803.511	13
804.003	9
804.495	9
804.987	13
805.479	7
805.971	6
806.464	11
806.956	11
807.448	9
807.94	10
808.433	12
808.925	15
809.417	10
809.91	14
810.402	12
810.894	10
811.387	8
811.879	9
812.372	16
812.865	11
813.357	11
813.85	7
814.342	6
814.835	15
815.328	8
815.821	10
816.313	6
816.806	12
817.299	10
817.792	10
818.285	10
818.778	8
819.271	14
819.764	9
820.257	3
820.75	14
821.243	11
821.736	7
822.229	10
822.722	11
823.216	13
