Data from lamp4helium_sterk_Subt4__10__134.txt Node

Date: Wed Apr 09 09:56:39 CEST 2025
User: fys-lab-0081
Spectrometer: S04999
Trigger mode: 0
Resolution mode: 1024 pixels
Integration Time (sec): 1.000000E-1
Scans to average: 1
Nonlinearity correction enabled: false
Boxcar width: 0
Baseline correction enabled: true
XAxis mode: Wavelengths
Number of Pixels in Spectrum: 1024
>>>>>Begin Spectral Data<<<<<
336.42	-2
336.877	-1
337.334	-3
337.792	-4
338.249	2
338.706	-1
339.164	-2
339.621	-3
340.079	0
340.536	1
340.994	7
341.452	-1
341.909	3
342.367	-3
342.825	-4
343.283	-1
343.741	-2
344.198	1
344.656	-1
345.114	0
345.572	2
346.03	4
346.488	1
346.947	-2
347.405	3
347.863	2
348.321	4
348.779	-5
349.238	-3
349.696	4
350.154	2
350.613	0
351.071	-4
351.53	4
351.988	7
352.447	1
352.905	-3
353.364	-1
353.823	5
354.282	2
354.74	-2
355.199	0
355.658	3
356.117	-1
356.576	3
357.035	1
357.494	1
357.953	1
358.412	4
358.871	-7
359.33	3
359.789	2
360.249	-2
360.708	2
361.167	-1
361.626	0
362.086	-1
362.545	4
363.005	4
363.464	-6
363.924	-3
364.383	3
364.843	0
365.303	1
365.762	-5
366.222	-2
366.682	1
367.142	2
367.601	3
368.061	1
368.521	3
368.981	0
369.441	0
369.901	4
370.361	1
370.821	-1
371.282	3
371.742	0
372.202	1
372.662	3
373.123	-3
373.583	-3
374.043	-1
374.504	-7
374.964	-1
375.425	-2
375.885	1
376.346	-1
376.806	1
377.267	1
377.728	5
378.188	2
378.649	5
379.11	0
379.571	-3
380.032	-3
380.493	1
380.954	5
381.414	-3
381.876	-5
382.337	3
382.798	6
383.259	6
383.72	0
384.181	-1
384.642	-1
385.104	5
385.565	10
386.026	-1
386.488	-3
386.949	-1
387.411	2
387.872	-2
388.334	3
388.795	1
389.257	5
389.719	3
390.181	-1
390.642	5
391.104	-1
391.566	-2
392.028	4
392.49	-5
392.952	3
393.414	5
393.876	0
394.338	-3
394.8	0
395.262	4
395.724	0
396.186	5
396.648	0
397.111	0
397.573	3
398.035	1
398.498	-1
398.96	-4
399.423	3
399.885	4
400.348	-3
400.81	4
401.273	-5
401.736	4
402.198	-2
402.661	-1
403.124	-5
403.587	0
404.049	2
404.512	4
404.975	6
405.438	2
405.901	0
406.364	5
406.827	3
407.29	4
407.754	1
408.217	7
408.68	2
409.143	-1
409.607	3
410.07	1
410.533	1
410.997	4
411.46	1
411.924	-2
412.387	2
412.851	-1
413.314	3
413.778	-2
414.242	-1
414.705	0
415.169	2
415.633	-1
416.097	3
416.561	-1
417.024	4
417.488	4
417.952	5
418.416	5
418.88	1
419.344	2
419.809	3
420.273	3
420.737	-1
421.201	-4
421.665	1
422.13	4
422.594	-1
423.059	5
423.523	1
423.987	2
424.452	-3
424.916	1
425.381	-3
425.846	-1
426.31	0
426.775	1
427.24	-1
427.704	-6
428.169	2
428.634	0
429.099	2
429.564	1
430.029	0
430.494	5
430.959	3
431.424	-1
431.889	-1
432.354	-2
432.819	1
433.284	-4
433.75	-4
434.215	0
434.68	6
435.146	4
435.611	14
436.077	18
436.542	16
437.008	5
437.473	1
437.939	3
438.404	5
438.87	4
439.336	3
439.801	0
440.267	-1
440.733	8
441.199	7
441.665	2
442.131	2
442.596	2
443.062	0
443.529	2
443.995	3
444.461	-1
444.927	9
445.393	2
445.859	5
446.325	2
446.792	9
447.258	8
447.724	2
448.191	3
448.657	3
449.124	10
449.59	4
450.057	4
450.523	4
450.99	1
451.457	3
451.923	6
452.39	1
452.857	8
453.324	2
453.791	6
454.257	6
454.724	2
455.191	5
455.658	2
456.125	5
456.592	2
457.059	4
457.527	8
457.994	4
458.461	5
458.928	8
459.396	6
459.863	5
460.33	8
460.798	0
461.265	4
461.732	6
462.2	4
462.668	8
463.135	6
463.603	8
464.07	1
464.538	9
465.006	8
465.474	5
465.941	6
466.409	2
466.877	4
467.345	1
467.813	8
468.281	9
468.749	1
469.217	1
469.685	8
470.153	5
470.621	6
471.09	4
471.558	0
472.026	6
472.494	2
472.963	2
473.431	7
473.9	8
474.368	9
474.837	7
475.305	6
475.774	6
476.242	10
476.711	8
477.18	11
477.648	7
478.117	8
478.586	11
479.055	0
479.524	8
479.993	9
480.462	6
480.93	8
481.399	7
481.869	6
482.338	8
482.807	2
483.276	8
483.745	11
484.214	12
484.684	11
485.153	5
485.622	4
486.092	11
486.561	14
487.031	3
487.5	4
487.97	14
488.439	14
488.909	12
489.378	10
489.848	9
490.318	11
490.787	9
491.257	16
491.727	9
492.197	18
492.667	11
493.137	9
493.607	9
494.077	13
494.547	7
495.017	11
495.487	11
495.957	14
496.427	12
496.897	8
497.368	11
497.838	10
498.308	7
498.779	9
499.249	8
499.719	7
500.19	11
500.66	8
501.131	12
501.602	6
502.072	6
502.543	11
503.014	8
503.484	12
503.955	9
504.426	10
504.897	10
505.368	16
505.838	7
506.309	11
506.78	7
507.251	15
507.722	11
508.194	15
508.665	15
509.136	11
509.607	12
510.078	16
510.549	15
511.021	13
511.492	14
511.964	11
512.435	12
512.906	13
513.378	17
513.849	11
514.321	17
514.793	14
515.264	12
515.736	10
516.208	13
516.679	16
517.151	12
517.623	15
518.095	11
518.567	10
519.038	13
519.51	17
519.982	19
520.454	13
520.927	15
521.399	13
521.871	16
522.343	15
522.815	15
523.287	10
523.76	15
524.232	15
524.704	17
525.177	12
525.649	13
526.122	17
526.594	21
527.067	20
527.539	17
528.012	17
528.484	23
528.957	17
529.43	15
529.903	12
530.375	15
530.848	19
531.321	18
531.794	13
532.267	16
532.74	19
533.213	24
533.686	20
534.159	17
534.632	18
535.105	22
535.578	16
536.051	15
536.525	19
536.998	23
537.471	22
537.945	17
538.418	22
538.891	22
539.365	20
539.838	25
540.312	27
540.786	34
541.259	42
541.733	41
542.206	41
542.68	45
543.154	39
543.628	37
544.101	36
544.575	37
545.049	41
545.523	46
545.997	61
546.471	59
546.945	46
547.419	45
547.893	36
548.367	30
548.842	31
549.316	26
549.79	29
550.264	24
550.739	26
551.213	24
551.687	18
552.162	22
552.636	22
553.111	23
553.585	27
554.06	21
554.534	20
555.009	19
555.484	22
555.958	23
556.433	17
556.908	15
557.383	21
557.858	19
558.333	17
558.807	26
559.282	19
559.757	24
560.232	21
560.708	20
561.183	18
561.658	20
562.133	20
562.608	18
563.083	17
563.559	17
564.034	21
564.509	14
564.985	14
565.46	23
565.936	19
566.411	14
566.887	23
567.362	20
567.838	23
568.313	26
568.789	17
569.265	18
569.74	20
570.216	20
570.692	22
571.168	23
571.644	19
572.12	19
572.596	20
573.071	27
573.547	20
574.024	19
574.5	19
574.976	21
575.452	19
575.928	23
576.404	22
576.881	26
577.357	23
577.833	26
578.31	27
578.786	22
579.262	20
579.739	30
580.215	28
580.692	24
581.169	30
581.645	28
582.122	27
582.598	29
583.075	25
583.552	32
584.029	25
584.506	34
584.982	29
585.459	24
585.936	30
586.413	32
586.89	31
587.367	30
587.844	35
588.321	36
588.799	26
589.276	25
589.753	24
590.23	28
590.707	27
591.185	28
591.662	26
592.139	23
592.617	32
593.094	35
593.572	31
594.049	27
594.527	26
595.004	28
595.482	28
595.96	20
596.437	27
596.915	37
597.393	25
597.871	25
598.349	25
598.826	29
599.304	29
599.782	32
600.26	31
600.738	30
601.216	30
601.694	30
602.173	36
602.651	33
603.129	28
603.607	31
604.085	30
604.564	27
605.042	26
605.52	29
605.999	31
606.477	29
606.956	31
607.434	32
607.913	33
608.391	35
608.87	30
609.348	34
609.827	41
610.306	60
610.785	80
611.263	98
611.742	92
612.221	82
612.7	66
613.179	55
613.658	52
614.137	48
614.616	45
615.095	42
615.574	36
616.053	39
616.532	32
617.011	40
617.491	34
617.97	33
618.449	33
618.928	32
619.408	34
619.887	35
620.367	33
620.846	33
621.326	34
621.805	40
622.285	29
622.764	37
623.244	32
623.724	34
624.203	34
624.683	35
625.163	33
625.643	32
626.123	36
626.602	33
627.082	30
627.562	32
628.042	40
628.522	35
629.002	36
629.482	31
629.963	36
630.443	39
630.923	42
631.403	35
631.883	36
632.364	36
632.844	29
633.324	32
633.805	30
634.285	30
634.766	32
635.246	28
635.727	28
636.207	27
636.688	28
637.168	30
637.649	25
638.13	32
638.611	29
639.091	27
639.572	30
640.053	36
640.534	30
641.015	28
641.496	27
641.977	30
642.458	31
642.939	33
643.42	26
643.901	30
644.382	32
644.863	23
645.345	31
645.826	29
646.307	27
646.788	32
647.27	28
647.751	27
648.233	28
648.714	31
649.196	24
649.677	27
650.159	31
650.64	32
651.122	33
651.603	35
652.085	32
652.567	30
653.049	32
653.53	31
654.012	28
654.494	34
654.976	28
655.458	27
655.94	34
656.422	28
656.904	33
657.386	30
657.868	29
658.35	29
658.833	26
659.315	29
659.797	30
660.279	28
660.762	30
661.244	27
661.726	29
662.209	26
662.691	25
663.174	28
663.656	31
664.139	21
664.621	26
665.104	29
665.587	24
666.069	24
666.552	26
667.035	21
667.517	29
668	24
668.483	23
668.966	26
669.449	24
669.932	31
670.415	28
670.898	28
671.381	26
671.864	26
672.347	25
672.83	26
673.313	27
673.797	23
674.28	26
674.763	22
675.247	33
675.73	24
676.213	27
676.697	28
677.18	28
677.664	27
678.147	23
678.631	24
679.114	26
679.598	26
680.082	28
680.565	29
681.049	25
681.533	30
682.017	29
682.5	28
682.984	31
683.468	28
683.952	28
684.436	27
684.92	26
685.404	25
685.888	26
686.372	28
686.856	31
687.341	29
687.825	21
688.309	28
688.793	28
689.278	27
689.762	25
690.246	28
690.731	26
691.215	26
691.7	24
692.184	28
692.669	30
693.153	25
693.638	30
694.122	24
694.607	23
695.092	25
695.577	28
696.061	23
696.546	26
697.031	29
697.516	25
698.001	22
698.486	23
698.971	26
699.456	22
699.941	28
700.426	27
700.911	26
701.396	28
701.881	25
702.366	22
702.852	26
703.337	25
703.822	30
704.308	29
704.793	23
705.278	30
705.764	29
706.249	28
706.735	23
707.22	31
707.706	27
708.191	31
708.677	26
709.163	28
709.648	30
710.134	28
710.62	27
711.106	26
711.592	28
712.077	32
712.563	31
713.049	26
713.535	28
714.021	29
714.507	28
714.993	22
715.479	23
715.966	25
716.452	29
716.938	22
717.424	27
717.91	24
718.397	27
718.883	25
719.369	27
719.856	25
720.342	26
720.829	30
721.315	28
721.802	22
722.288	21
722.775	20
723.262	19
723.748	21
724.235	26
724.722	22
725.208	25
725.695	25
726.182	25
726.669	18
727.156	21
727.643	21
728.13	22
728.617	27
729.104	27
729.591	25
730.078	22
730.565	25
731.052	20
731.539	21
732.027	19
732.514	22
733.001	20
733.488	27
733.976	16
734.463	22
734.951	22
735.438	20
735.926	21
736.413	27
736.901	22
737.388	22
737.876	23
738.364	25
738.851	24
739.339	23
739.827	21
740.314	20
740.802	24
741.29	21
741.778	22
742.266	21
742.754	24
743.242	28
743.73	24
744.218	20
744.706	20
745.194	21
745.682	23
746.17	21
746.659	18
747.147	23
747.635	20
748.123	18
748.612	18
749.1	18
749.589	24
750.077	17
750.566	19
751.054	18
751.543	16
752.031	23
752.52	19
753.008	17
753.497	20
753.986	18
754.474	12
754.963	21
755.452	17
755.941	20
756.43	16
756.919	23
757.408	22
757.896	17
758.385	18
758.875	19
759.364	18
759.853	19
760.342	21
760.831	15
761.32	21
761.809	18
762.299	16
762.788	19
763.277	17
763.767	20
764.256	17
764.745	16
765.235	17
765.724	13
766.214	11
766.703	13
767.193	19
767.683	22
768.172	14
768.662	15
769.152	18
769.641	18
770.131	15
770.621	20
771.111	16
771.601	14
772.09	18
772.58	19
773.07	22
773.56	17
774.05	16
774.54	16
775.031	17
775.521	18
776.011	14
776.501	17
776.991	16
777.482	13
777.972	15
778.462	12
778.953	12
779.443	14
779.933	12
780.424	15
780.914	12
781.405	18
781.895	14
782.386	13
782.877	15
783.367	15
783.858	16
784.349	17
784.839	12
785.33	12
785.821	15
786.312	14
786.803	17
787.293	12
787.784	15
788.275	13
788.766	8
789.257	12
789.748	13
790.24	12
790.731	18
791.222	11
791.713	14
792.204	12
792.696	14
793.187	15
793.678	8
794.169	9
794.661	14
795.152	18
795.644	10
796.135	14
796.627	12
797.118	16
797.61	16
798.101	8
798.593	12
799.085	13
799.576	15
800.068	10
800.56	10
801.052	11
801.544	15
802.035	14
802.527	9
803.019	11
803.511	12
804.003	12
804.495	7
804.987	10
805.479	5
805.971	15
806.464	11
806.956	14
807.448	12
807.94	11
808.433	13
808.925	16
809.417	12
809.91	9
810.402	15
810.894	10
811.387	6
811.879	13
812.372	13
812.865	11
813.357	10
813.85	8
814.342	9
814.835	11
815.328	11
815.821	8
816.313	8
816.806	10
817.299	6
817.792	11
818.285	8
818.778	13
819.271	12
819.764	10
820.257	11
820.75	9
821.243	5
821.736	9
822.229	12
822.722	12
823.216	6
