Data from lamp4helium_sterk_Subt4__5__129.txt Node

Date: Wed Apr 09 09:56:38 CEST 2025
User: fys-lab-0081
Spectrometer: S04999
Trigger mode: 0
Resolution mode: 1024 pixels
Integration Time (sec): 1.000000E-1
Scans to average: 1
Nonlinearity correction enabled: false
Boxcar width: 0
Baseline correction enabled: true
XAxis mode: Wavelengths
Number of Pixels in Spectrum: 1024
>>>>>Begin Spectral Data<<<<<
336.42	3
336.877	-3
337.334	-1
337.792	-3
338.249	3
338.706	2
339.164	-2
339.621	-1
340.079	-1
340.536	5
340.994	3
341.452	-2
341.909	-1
342.367	1
342.825	0
343.283	0
343.741	-3
344.198	-3
344.656	-1
345.114	-6
345.572	1
346.03	2
346.488	0
346.947	0
347.405	-1
347.863	0
348.321	1
348.779	0
349.238	2
349.696	3
350.154	-1
350.613	0
351.071	-1
351.53	-1
351.988	2
352.447	0
352.905	1
353.364	-4
353.823	-1
354.282	1
354.74	-5
355.199	-2
355.658	4
356.117	-1
356.576	6
357.035	0
357.494	1
357.953	2
358.412	6
358.871	-8
359.33	-3
359.789	2
360.249	-2
360.708	4
361.167	2
361.626	5
362.086	2
362.545	1
363.005	2
363.464	-4
363.924	-6
364.383	2
364.843	-1
365.303	1
365.762	-4
366.222	-2
366.682	4
367.142	3
367.601	-3
368.061	-4
368.521	2
368.981	2
369.441	1
369.901	7
370.361	0
370.821	3
371.282	1
371.742	0
372.202	4
372.662	3
373.123	1
373.583	1
374.043	-1
374.504	-4
374.964	0
375.425	-1
375.885	-1
376.346	-1
376.806	1
377.267	2
377.728	2
378.188	-3
378.649	0
379.11	1
379.571	-1
380.032	0
380.493	1
380.954	5
381.414	-1
381.876	2
382.337	0
382.798	2
383.259	5
383.72	-3
384.181	-2
384.642	-1
385.104	4
385.565	10
386.026	2
386.488	-2
386.949	5
387.411	2
387.872	1
388.334	1
388.795	-2
389.257	5
389.719	1
390.181	3
390.642	2
391.104	1
391.566	-3
392.028	6
392.49	-2
392.952	-1
393.414	-2
393.876	1
394.338	-1
394.8	-2
395.262	0
395.724	2
396.186	3
396.648	7
397.111	2
397.573	4
398.035	1
398.498	3
398.96	-3
399.423	-1
399.885	8
400.348	1
400.81	9
401.273	-3
401.736	2
402.198	1
402.661	6
403.124	-2
403.587	1
404.049	2.5
404.512	4
404.975	3
405.438	2
405.901	-1
406.364	3
406.827	5
407.29	4
407.754	5
408.217	3
408.68	0
409.143	1
409.607	7
410.07	5
410.533	0
410.997	1
411.46	-1
411.924	2
412.387	-1
412.851	0
413.314	2
413.778	-1
414.242	1
414.705	0
415.169	0
415.633	-1
416.097	2
416.561	0
417.024	2
417.488	7
417.952	3
418.416	6
418.88	1
419.344	3
419.809	3
420.273	4
420.737	0
421.201	-7
421.665	5
422.13	2
422.594	3
423.059	5
423.523	4
423.987	0
424.452	-7
424.916	-1
425.381	2
425.846	0
426.31	1
426.775	-4
427.24	3
427.704	-4
428.169	5
428.634	4
429.099	1
429.564	3
430.029	4
430.494	5
430.959	-1
431.424	3
431.889	5
432.354	-1
432.819	1
433.284	3
433.75	-5
434.215	-1
434.68	5
435.146	5
435.611	14
436.077	16
436.542	17
437.008	4
437.473	2
437.939	5
438.404	3
438.87	3
439.336	0
439.801	3
440.267	1
440.733	7
441.199	7
441.665	-2
442.131	4
442.596	6
443.062	1
443.529	1
443.995	3
444.461	-2
444.927	5
445.393	2
445.859	5
446.325	6
446.792	8
447.258	5
447.724	6
448.191	6
448.657	0
449.124	5
449.59	3
450.057	10
450.523	6
450.99	1
451.457	1
451.923	4
452.39	5
452.857	1
453.324	-4
453.791	1
454.257	8
454.724	2
455.191	1
455.658	-2
456.125	4
456.592	1
457.059	4
457.527	3
457.994	0
458.461	8
458.928	10
459.396	4
459.863	7
460.33	6
460.798	4
461.265	5
461.732	7
462.2	4
462.668	9
463.135	11
463.603	7
464.07	-3
464.538	8
465.006	7
465.474	5
465.941	6
466.409	4
466.877	4
467.345	6
467.813	5
468.281	7
468.749	2
469.217	1
469.685	7
470.153	9
470.621	3
471.09	4
471.558	0
472.026	6
472.494	-2
472.963	-2
473.431	6
473.9	7
474.368	7
474.837	6
475.305	5
475.774	11
476.242	10
476.711	7
477.18	7
477.648	10
478.117	9
478.586	10
479.055	6
479.524	6
479.993	9
480.462	7
480.93	9
481.399	3
481.869	3
482.338	8
482.807	8
483.276	4
483.745	12
484.214	11
484.684	12
485.153	5
485.622	4
486.092	10
486.561	14
487.031	10
487.5	2
487.97	10
488.439	8
488.909	13
489.378	10
489.848	7
490.318	10
490.787	11
491.257	20
491.727	13
492.197	14
492.667	11
493.137	10
493.607	15
494.077	9
494.547	6
495.017	12
495.487	11
495.957	10
496.427	10
496.897	6
497.368	9
497.838	9
498.308	8
498.779	12
499.249	14
499.719	10
500.19	11
500.66	12
501.131	11
501.602	10
502.072	4
502.543	10
503.014	9
503.484	11
503.955	8
504.426	12
504.897	11
505.368	14
505.838	11
506.309	11
506.78	11
507.251	12
507.722	9
508.194	12
508.665	15
509.136	11
509.607	12
510.078	12
510.549	13
511.021	13
511.492	9
511.964	5
512.435	14
512.906	13
513.378	12
513.849	15
514.321	17
514.793	12
515.264	8
515.736	12
516.208	13
516.679	12
517.151	12
517.623	13
518.095	13
518.567	15
519.038	17
519.51	15
519.982	18
520.454	17
520.927	17
521.399	14
521.871	18
522.343	17
522.815	14
523.287	15
523.76	17
524.232	16
524.704	16
525.177	12
525.649	10
526.122	15
526.594	15
527.067	15
527.539	19
528.012	17
528.484	17
528.957	18
529.43	13
529.903	12
530.375	16
530.848	18
531.321	13
531.794	12
532.267	17
532.74	18
533.213	23
533.686	20
534.159	17
534.632	18
535.105	21
535.578	14
536.051	15
536.525	16
536.998	20
537.471	16
537.945	15
538.418	21
538.891	23
539.365	19
539.838	26
540.312	28
540.786	37
541.259	43
541.733	41
542.206	41
542.68	43
543.154	37
543.628	38
544.101	38
544.575	38
545.049	42
545.523	47
545.997	61
546.471	58
546.945	50
547.419	42
547.893	39
548.367	28
548.842	30
549.316	25
549.79	33
550.264	22
550.739	25
551.213	20
551.687	19
552.162	19
552.636	21
553.111	18
553.585	27
554.06	22
554.534	19
555.009	16
555.484	19
555.958	25
556.433	21
556.908	19
557.383	18
557.858	15
558.333	20
558.807	20
559.282	17
559.757	24
560.232	21
560.708	17
561.183	17
561.658	20
562.133	19
562.608	12
563.083	17
563.559	17
564.034	20
564.509	11
564.985	18
565.46	21
565.936	22
566.411	16
566.887	20
567.362	18
567.838	25
568.313	20
568.789	17
569.265	18
569.74	22
570.216	15
570.692	19
571.168	21
571.644	19
572.12	19
572.596	23
573.071	23
573.547	20
574.024	14
574.5	20
574.976	20
575.452	27
575.928	20
576.404	22
576.881	26
577.357	25
577.833	25
578.31	21
578.786	29
579.262	29
579.739	26
580.215	27
580.692	25
581.169	29
581.645	26
582.122	27
582.598	26
583.075	28
583.552	28
584.029	27
584.506	29
584.982	26
585.459	25
585.936	30
586.413	30
586.89	33
587.367	30
587.844	35
588.321	34
588.799	28
589.276	25
589.753	23
590.23	24
590.707	27
591.185	26
591.662	25
592.139	26
592.617	28
593.094	33
593.572	31
594.049	34
594.527	25
595.004	26
595.482	33
595.96	22
596.437	22
596.915	32
597.393	28
597.871	28
598.349	28
598.826	26
599.304	29
599.782	30
600.26	33
600.738	33
601.216	31
601.694	28
602.173	35
602.651	34
603.129	25
603.607	31
604.085	30
604.564	29
605.042	28
605.52	29
605.999	32
606.477	28
606.956	32
607.434	31
607.913	30
608.391	29
608.87	35
609.348	38
609.827	42
610.306	58
610.785	85
611.263	98
611.742	92
612.221	81
612.7	67
613.179	57
613.658	51
614.137	47
614.616	46
615.095	42
615.574	41
616.053	38
616.532	29
617.011	43
617.491	33
617.97	32
618.449	28
618.928	36
619.408	33
619.887	35
620.367	30
620.846	34
621.326	34
621.805	34
622.285	37
622.764	39
623.244	37
623.724	30
624.203	34
624.683	38
625.163	33
625.643	31
626.123	33
626.602	32
627.082	30
627.562	33
628.042	40
628.522	36
629.002	34
629.482	29
629.963	32
630.443	43
630.923	42
631.403	34
631.883	40
632.364	33
632.844	27
633.324	33
633.805	30
634.285	30
634.766	27
635.246	24
635.727	28
636.207	25
636.688	29
637.168	30
637.649	28
638.13	30
638.611	29
639.091	32
639.572	24
640.053	29
640.534	33
641.015	31
641.496	27
641.977	25
642.458	30
642.939	33
643.42	25
643.901	29
644.382	27
644.863	23
645.345	26
645.826	29
646.307	32
646.788	34
647.27	28
647.751	29
648.233	27
648.714	29
649.196	24
649.677	30
650.159	28
650.64	33
651.122	31
651.603	32
652.085	28
652.567	31
653.049	28
653.53	30
654.012	32
654.494	27
654.976	26
655.458	27
655.94	32
656.422	31
656.904	32
657.386	31
657.868	32
658.35	30
658.833	23
659.315	28
659.797	28
660.279	23
660.762	31
661.244	27
661.726	25
662.209	25
662.691	24
663.174	26
663.656	27
664.139	22
664.621	31
665.104	30
665.587	34
666.069	26
666.552	20
667.035	22
667.517	29
668	29
668.483	30
668.966	22
669.449	22
669.932	29
670.415	28
670.898	27
671.381	24
671.864	24
672.347	31
672.83	25
673.313	21
673.797	25
674.28	25
674.763	21
675.247	30
675.73	25
676.213	24
676.697	31
677.18	27
677.664	28
678.147	30
678.631	25
679.114	26
679.598	28
680.082	29
680.565	28
681.049	25
681.533	31
682.017	24
682.5	25
682.984	28
683.468	33
683.952	23
684.436	28
684.92	28
685.404	26
685.888	26
686.372	27
686.856	32
687.341	28
687.825	29
688.309	30
688.793	25
689.278	30
689.762	30
690.246	28
690.731	23
691.215	28
691.7	27
692.184	24
692.669	25
693.153	27
693.638	30
694.122	29
694.607	25
695.092	25
695.577	23
696.061	29
696.546	25
697.031	25
697.516	16
698.001	24
698.486	25
698.971	30
699.456	25
699.941	23
700.426	24
700.911	28
701.396	30
701.881	26
702.366	26
702.852	22
703.337	25
703.822	27
704.308	26
704.793	30
705.278	30
705.764	30
706.249	29
706.735	24
707.22	34
707.706	27
708.191	26
708.677	23
709.163	28
709.648	30
710.134	24
710.62	27
711.106	25
711.592	30
712.077	27
712.563	30
713.049	30
713.535	31
714.021	26
714.507	25
714.993	24
715.479	23
715.966	21
716.452	22
716.938	19
717.424	26
717.91	24
718.397	29
718.883	24
719.369	25
719.856	25
720.342	19
720.829	26
721.315	30
721.802	25
722.288	26
722.775	22
723.262	19
723.748	25
724.235	23
724.722	22
725.208	22
725.695	24
726.182	27
726.669	19
727.156	27
727.643	21
728.13	22
728.617	27
729.104	27
729.591	23
730.078	21
730.565	20
731.052	22
731.539	19
732.027	17
732.514	19
733.001	19
733.488	22
733.976	14
734.463	19
734.951	16
735.438	18
735.926	23
736.413	27
736.901	22
737.388	16
737.876	25
738.364	25
738.851	24
739.339	20
739.827	20
740.314	18
740.802	25
741.29	23
741.778	20
742.266	21
742.754	18
743.242	29
743.73	19
744.218	18
744.706	16
745.194	17
745.682	21
746.17	17
746.659	22
747.147	17
747.635	20
748.123	23
748.612	17
749.1	18
749.589	25
750.077	20
750.566	18
751.054	18
751.543	16
752.031	20
752.52	21
753.008	20
753.497	24
753.986	21
754.474	14
754.963	20
755.452	21
755.941	17
756.43	19
756.919	20
757.408	24
757.896	16
758.385	22
758.875	21
759.364	19
759.853	24
760.342	23
760.831	20
761.32	16
761.809	16
762.299	21
762.788	20
763.277	16
763.767	16
764.256	16
764.745	13
765.235	18
765.724	9
766.214	16
766.703	16
767.193	20
767.683	21
768.172	14
768.662	16
769.152	20
769.641	19
770.131	17
770.621	20
771.111	15
771.601	13
772.09	16
772.58	19
773.07	21
773.56	15
774.05	17
774.54	15
775.031	17
775.521	16
776.011	16
776.501	18
776.991	13
777.482	11
777.972	8
778.462	13
778.953	15
779.443	16
779.933	12
780.424	18
780.914	14
781.405	19
781.895	15
782.386	10
782.877	16
783.367	13
783.858	15
784.349	18
784.839	12
785.33	13
785.821	18
786.312	10
786.803	10
787.293	14
787.784	12
788.275	15
788.766	8
789.257	10
789.748	6
790.24	8
790.731	16
791.222	7
791.713	17
792.204	16
792.696	18
793.187	13
793.678	9
794.169	16
794.661	13
795.152	10
795.644	9
796.135	9
796.627	13
797.118	15
797.61	10
798.101	14
798.593	6
799.085	11
799.576	14
800.068	13
800.56	12
801.052	12
801.544	16
802.035	14
802.527	7
803.019	13
803.511	11
804.003	12
804.495	9
804.987	6
805.479	5
805.971	13
806.464	16
806.956	14
807.448	13
807.94	13
808.433	12
808.925	16
809.417	14
809.91	13
810.402	8
810.894	12
811.387	11
811.879	11
812.372	12
812.865	15
813.357	13
813.85	5
814.342	7
814.835	9
815.328	10
815.821	8
816.313	11
816.806	6
817.299	9
817.792	10
818.285	8
818.778	10
819.271	11
819.764	8
820.257	10
820.75	14
821.243	5
821.736	5
822.229	12
822.722	12
823.216	10
