Data from lamp4helium_sterk_Subt2__22__122.txt Node

Date: Wed Apr 09 11:06:57 CEST 2025
User: fys-lab-0081
Spectrometer: S04999
Trigger mode: 0
Resolution mode: 1024 pixels
Integration Time (sec): 1.000000E-1
Scans to average: 1
Nonlinearity correction enabled: false
Boxcar width: 0
Baseline correction enabled: true
XAxis mode: Wavelengths
Number of Pixels in Spectrum: 1024
>>>>>Begin Spectral Data<<<<<
336.42	-2
336.877	2
337.334	5
337.792	11
338.249	6
338.706	5
339.164	5
339.621	6
340.079	4
340.536	4
340.994	7
341.452	7
341.909	9
342.367	2
342.825	2
343.283	10
343.741	1
344.198	5
344.656	3
345.114	3
345.572	9
346.03	7
346.488	5
346.947	6
347.405	7
347.863	6
348.321	5
348.779	6
349.238	5
349.696	9
350.154	6
350.613	4
351.071	7
351.53	13
351.988	10
352.447	9
352.905	5
353.364	8
353.823	10
354.282	7
354.74	5
355.199	9
355.658	13
356.117	8
356.576	10
357.035	9
357.494	8
357.953	12
358.412	13
358.871	12
359.33	11
359.789	12
360.249	14
360.708	11
361.167	18
361.626	15
362.086	14
362.545	15
363.005	17
363.464	15
363.924	18
364.383	14
364.843	22
365.303	21
365.762	23
366.222	19
366.682	18
367.142	22
367.601	19
368.061	21
368.521	20
368.981	19
369.441	29
369.901	24
370.361	23
370.821	22
371.282	23
371.742	31
372.202	25
372.662	27
373.123	21
373.583	27
374.043	34
374.504	28
374.964	28
375.425	35
375.885	33
376.346	34
376.806	35
377.267	31
377.728	37
378.188	39
378.649	38
379.11	42
379.571	34
380.032	42
380.493	40
380.954	47
381.414	42
381.876	43
382.337	45
382.798	51
383.259	46
383.72	50
384.181	47
384.642	48
385.104	57
385.565	61
386.026	64
386.488	63
386.949	62
387.411	63
387.872	71
388.334	72
388.795	75
389.257	76
389.719	74
390.181	75
390.642	79
391.104	78
391.566	84
392.028	87
392.49	94
392.952	91
393.414	92
393.876	95
394.338	94
394.8	95
395.262	95
395.724	104
396.186	101
396.648	100
397.111	103
397.573	110
398.035	111
398.498	108
398.96	112
399.423	109
399.885	114
400.348	120
400.81	121
401.273	118
401.736	122
402.198	135
402.661	136
403.124	132
403.587	140
404.049	144
404.512	148
404.975	148
405.438	149
405.901	155
406.364	157
406.827	154
407.29	152
407.754	153
408.217	158
408.68	155
409.143	162
409.607	167
410.07	162
410.533	166
410.997	169
411.46	171
411.924	177
412.387	179
412.851	183
413.314	188
413.778	185
414.242	191
414.705	197
415.169	197
415.633	198
416.097	194
416.561	200
417.024	206
417.488	197
417.952	206
418.416	200
418.88	200
419.344	202
419.809	207
420.273	210
420.737	212
421.201	217
421.665	221
422.13	220
422.594	232
423.059	231
423.523	243
423.987	237
424.452	249
424.916	254
425.381	262
425.846	257
426.31	267
426.775	271
427.24	275
427.704	274
428.169	279
428.634	278
429.099	282
429.564	276
430.029	283
430.494	281
430.959	279
431.424	278
431.889	290
432.354	294
432.819	291
433.284	305
433.75	308
434.215	319
434.68	319
435.146	319
435.611	334
436.077	349
436.542	353
437.008	369
437.473	366
437.939	366
438.404	375
438.87	388
439.336	377
439.801	375
440.267	389
440.733	394
441.199	396
441.665	395
442.131	413
442.596	401
443.062	416
443.529	435
443.995	445
444.461	447
444.927	469
445.393	475
445.859	492
446.325	501
446.792	530
447.258	524
447.724	541
448.191	559
448.657	567
449.124	578
449.59	579
450.057	612
450.523	617
450.99	629
451.457	622
451.923	637
452.39	635
452.857	648
453.324	640
453.791	650
454.257	651
454.724	665
455.191	662
455.658	670
456.125	689
456.592	677
457.059	686
457.527	701
457.994	716
458.461	724
458.928	737
459.396	732
459.863	757
460.33	757
460.798	761
461.265	775
461.732	763
462.2	783
462.668	780
463.135	788
463.603	767
464.07	794
464.538	768
465.006	794
465.474	774
465.941	785
466.409	792
466.877	778
467.345	794
467.813	785
468.281	795
468.749	812
469.217	806
469.685	818
470.153	839
470.621	837
471.09	841
471.558	882
472.026	875
472.494	906
472.963	917
473.431	936
473.9	957
474.368	981
474.837	998
475.305	1007
475.774	1025
476.242	1053
476.711	1056
477.18	1086
477.648	1074
478.117	1084
478.586	1078
479.055	1083
479.524	1096
479.993	1095
480.462	1091
480.93	1093
481.399	1095
481.869	1107
482.338	1092
482.807	1114
483.276	1107
483.745	1109
484.214	1143
484.684	1163
485.153	1171
485.622	1174
486.092	1209
486.561	1184
487.031	1236
487.5	1252
487.97	1264
488.439	1297
488.909	1331
489.378	1375
489.848	1383
490.318	1403
490.787	1468
491.257	1484
491.727	1488
492.197	1508
492.667	1514
493.137	1534
493.607	1541
494.077	1557
494.547	1542
495.017	1532
495.487	1564
495.957	1605
496.427	1565
496.897	1561
497.368	1587
497.838	1577
498.308	1602
498.779	1621
499.249	1632
499.719	1645
500.19	1671
500.66	1673
501.131	1683
501.602	1715
502.072	1710
502.543	1735
503.014	1793
503.484	1786
503.955	1845
504.426	1904
504.897	1917
505.368	1953
505.838	2013
506.309	2052
506.78	2117
507.251	2152
507.722	2194
508.194	2250
508.665	2278
509.136	2277
509.607	2344
510.078	2365
510.549	2378
511.021	2442
511.492	2439
511.964	2481
512.435	2516
512.906	2486
513.378	2506
513.849	2557
514.321	2581
514.793	2599
515.264	2634
515.736	2661
516.208	2709
516.679	2728
517.151	2745
517.623	2782
518.095	2819
518.567	2846
519.038	2898
519.51	2882
519.982	2925
520.454	2960
520.927	3013
521.399	3061
521.871	3076
522.343	3093
522.815	3115
523.287	3114
523.76	3127
524.232	3177
524.704	3199
525.177	3149
525.649	3174
526.122	3214
526.594	3144
527.067	3214
527.539	3252
528.012	3245
528.484	3228
528.957	3249
529.43	3239
529.903	3228
530.375	3339
530.848	3274
531.321	3325
531.794	3333
532.267	3405
532.74	3344
533.213	3343
533.686	3402
534.159	3385
534.632	3464
535.105	3466
535.578	3535
536.051	3541
536.525	3553
536.998	3554
537.471	3635
537.945	3583
538.418	3644
538.891	3667
539.365	3721
539.838	3737
540.312	3715
540.786	3745
541.259	3755
541.733	3812
542.206	3821
542.68	3762
543.154	3765
543.628	3786
544.101	3846
544.575	3786
545.049	3697
545.523	3768
545.997	3751
546.471	3782
546.945	3757
547.419	3809
547.893	3680
548.367	3757
548.842	3718
549.316	3748
549.79	3769
550.264	3739
550.739	3791
551.213	3808
551.687	3805
552.162	3833
552.636	3797
553.111	3795
553.585	3910
554.06	3850
554.534	3910
555.009	3908
555.484	3972
555.958	4001
556.433	4015
556.908	4076
557.383	4038
557.858	4132
558.333	4129
558.807	4119
559.282	4167
559.757	4272
560.232	4259
560.708	4174
561.183	4170
561.658	4238
562.133	4221
562.608	4183
563.083	4299
563.559	4213
564.034	4220
564.509	4212
564.985	4234
565.46	4194
565.936	4275
566.411	4258
566.887	4190
567.362	4237
567.838	4258
568.313	4291
568.789	4218
569.265	4222
569.74	4253
570.216	4212
570.692	4274
571.168	4261
571.644	4272
572.12	4271
572.596	4306
573.071	4320
573.547	4455
574.024	4520
574.5	4548
574.976	4557
575.452	4621
575.928	4684
576.404	4705
576.881	4837
577.357	4758
577.833	4774
578.31	4916
578.786	4968
579.262	5018
579.739	4945
580.215	5117
580.692	5142
581.169	5068
581.645	5074
582.122	5219
582.598	5216
583.075	5186
583.552	5200
584.029	5184
584.506	5177
584.982	5143
585.459	5250
585.936	5171
586.413	5229
586.89	5334
587.367	5298
587.844	5388
588.321	5339
588.799	5356
589.276	5301
589.753	5377
590.23	5412
590.707	5414
591.185	5427
591.662	5444
592.139	5513
592.617	5575
593.094	5547
593.572	5578
594.049	5627
594.527	5657
595.004	5685
595.482	5852
595.96	5791
596.437	5768
596.915	5896
597.393	5823
597.871	5978
598.349	5907
598.826	6011
599.304	6026
599.782	6155
600.26	6107
600.738	6249
601.216	6198
601.694	6244
602.173	6272
602.651	6314
603.129	6260
603.607	6305
604.085	6310
604.564	6334
605.042	6376
605.52	6334
605.999	6464
606.477	6273
606.956	6323
607.434	6395
607.913	6467
608.391	6433
608.87	6382
609.348	6281
609.827	6329
610.306	6366
610.785	6382
611.263	6368
611.742	6324
612.221	6240
612.7	6334
613.179	6375
613.658	6289
614.137	6379
614.616	6445
615.095	6350
615.574	6440
616.053	6470
616.532	6413
617.011	6424
617.491	6470
617.97	6445
618.449	6509
618.928	6574
619.408	6523
619.887	6569
620.367	6620
620.846	6677
621.326	6613
621.805	6755
622.285	6774
622.764	6837
623.244	6848
623.724	6869
624.203	6919
624.683	6789
625.163	6926
625.643	6907
626.123	6841
626.602	7013
627.082	6865
627.562	6857
628.042	6969
628.522	6929
629.002	6874
629.482	6915
629.963	6909
630.443	6843
630.923	6842
631.403	6886
631.883	6872
632.364	6902
632.844	6886
633.324	6891
633.805	6877
634.285	6768
634.766	6732
635.246	6759
635.727	6788
636.207	6800
636.688	6761
637.168	6743
637.649	6709
638.13	6730
638.611	6781
639.091	6755
639.572	6707
640.053	6665
640.534	6702
641.015	6691
641.496	6600
641.977	6723
642.458	6651
642.939	6672
643.42	6677
643.901	6677
644.382	6781
644.863	6742
645.345	6728
645.826	6736
646.307	6734
646.788	6848
647.27	6741
647.751	6745
648.233	6806
648.714	6640
649.196	6815
649.677	6763
650.159	6778
650.64	6713
651.122	6824
651.603	6728
652.085	6788
652.567	6843
653.049	6784
653.53	6783
654.012	6889
654.494	6780
654.976	6866
655.458	6821
655.94	6797
656.422	6886
656.904	6755
657.386	6656
657.868	6663
658.35	6629
658.833	6673
659.315	6691
659.797	6584
660.279	6572
660.762	6594
661.244	6521
661.726	6472
662.209	6511
662.691	6502
663.174	6376
663.656	6409
664.139	6434
664.621	6386
665.104	6344
665.587	6413
666.069	6447
666.552	6429
667.035	6353
667.517	6391
668	6467
668.483	6445
668.966	6384
669.449	6359
669.932	6358
670.415	6423
670.898	6380
671.381	6398
671.864	6395
672.347	6311
672.83	6306
673.313	6318
673.797	6299
674.28	6414
674.763	6424
675.247	6428
675.73	6348
676.213	6400
676.697	6471
677.18	6474
677.664	6483
678.147	6474
678.631	6530
679.114	6601
679.598	6607
680.082	6659
680.565	6638
681.049	6618
681.533	6593
682.017	6632
682.5	6601
682.984	6606
683.468	6611
683.952	6520
684.436	6655
684.92	6593
685.404	6635
685.888	6655
686.372	6571
686.856	6587
687.341	6652
687.825	6537
688.309	6567
688.793	6588
689.278	6514
689.762	6588
690.246	6528
690.731	6521
691.215	6553
691.7	6376
692.184	6470
692.669	6443
693.153	6451
693.638	6344
694.122	6365
694.607	6433
695.092	6348
695.577	6422
696.061	6299
696.546	6324
697.031	6285
697.516	6340
698.001	6366
698.486	6332
698.971	6409
699.456	6229
699.941	6215
700.426	6209
700.911	6283
701.396	6258
701.881	6304
702.366	6246
702.852	6218
703.337	6210
703.822	6185
704.308	6183
704.793	6217
705.278	6217
705.764	6236
706.249	6197
706.735	6187
707.22	6251
707.706	6174
708.191	6240
708.677	6233
709.163	6166
709.648	6197
710.134	6316
710.62	6282
711.106	6286
711.592	6333
712.077	6268
712.563	6090
713.049	6091
713.535	6236
714.021	6226
714.507	6198
714.993	6106
715.479	6146
715.966	6066
716.452	6090
716.938	6100
717.424	5917
717.91	6037
718.397	5969
718.883	5931
719.369	5957
719.856	5878
720.342	5955
720.829	5866
721.315	5896
721.802	5833
722.288	5872
722.775	5628
723.262	5481
723.748	5734
724.235	5703
724.722	5792
725.208	5658
725.695	5654
726.182	5646
726.669	5589
727.156	5652
727.643	5615
728.13	5570
728.617	5500
729.104	5514
729.591	5471
730.078	5507
730.565	5513
731.052	5427
731.539	5445
732.027	5399
732.514	5326
733.001	5368
733.488	5334
733.976	5328
734.463	5295
734.951	5306
735.438	5331
735.926	5274
736.413	5314
736.901	5267
737.388	5315
737.876	5282
738.364	5246
738.851	5288
739.339	5297
739.827	5343
740.314	5165
740.802	5181
741.29	5196
741.778	5130
742.266	5138
742.754	5161
743.242	5219
743.73	5133
744.218	5112
744.706	5058
745.194	5128
745.682	5116
746.17	5119
746.659	5120
747.147	5002
747.635	5009
748.123	4978
748.612	4907
749.1	4854
749.589	4883
750.077	4861
750.566	4849
751.054	4879
751.543	4906
752.031	4792
752.52	4751
753.008	4650
753.497	4672
753.986	4671
754.474	4675
754.963	4712
755.452	4621
755.941	4578
756.43	4557
756.919	4540
757.408	4498
757.896	4532
758.385	4558
758.875	4509
759.364	4460
759.853	4414
760.342	4344
760.831	4432
761.32	4398
761.809	4321
762.299	4349
762.788	4358
763.277	4367
763.767	4312
764.256	4318
764.745	4271
765.235	4327
765.724	4201
766.214	4279
766.703	4225
767.193	4148
767.683	4136
768.172	4051
768.662	4090
769.152	4064
769.641	4071
770.131	3956
770.621	4003
771.111	3940
771.601	3926
772.09	3884
772.58	3841
773.07	3850
773.56	3866
774.05	3779
774.54	3749
775.031	3715
775.521	3710
776.011	3714
776.501	3754
776.991	3658
777.482	3691
777.972	3607
778.462	3603
778.953	3612
779.443	3612
779.933	3599
780.424	3574
780.914	3612
781.405	3623
781.895	3604
782.386	3600
782.877	3574
783.367	3514
783.858	3487
784.349	3490
784.839	3449
785.33	3462
785.821	3462
786.312	3432
786.803	3453
787.293	3457
787.784	3406
788.275	3361
788.766	3336
789.257	3383
789.748	3304
790.24	3263
790.731	3264
791.222	3205
791.713	3194
792.204	3198
792.696	3117
793.187	3142
793.678	3095
794.169	2997
794.661	3048
795.152	2990
795.644	2967
796.135	2964
796.627	2988
797.118	2927
797.61	2897
798.101	2857
798.593	2886
799.085	2828
799.576	2853
800.068	2842
800.56	2850
801.052	2784
801.544	2786
802.035	2784
802.527	2742
803.019	2712
803.511	2684
804.003	2669
804.495	2687
804.987	2667
805.479	2618
805.971	2632
806.464	2630
806.956	2572
807.448	2550
807.94	2554
808.433	2539
808.925	2522
809.417	2505
809.91	2498
810.402	2428
810.894	2447
811.387	2479
811.879	2438
812.372	2448
812.865	2400
813.357	2394
813.85	2389
814.342	2361
814.835	2358
815.328	2349
815.821	2313
816.313	2305
816.806	2311
817.299	2273
817.792	2291
818.285	2245
818.778	2279
819.271	2279
819.764	2244
820.257	2254
820.75	2253
821.243	2245
821.736	2220
822.229	2247
822.722	2227
823.216	2267
